accelerometerX,accelerometerY,accelerometerZ,gyroscopeX,gyroscopeY,gyroscopeZ
-0.722,1.878,0.149,6.165,-223.389,211.914
-0.776,2.484,0.102,10.681,-237.793,110.168
-0.998,2.078,0.014,-24.841,-252.625,28.015
-1.288,1.595,0.257,-66.895,-284.180,-30.151
-1.570,1.644,1.055,-54.932,-319.824,-37.109
-1.615,1.923,1.577,-25.696,-328.918,-40.039
-1.695,2.041,2.307,63.843,-279.053,-88.623
-1.889,1.316,1.805,123.962,-181.824,-166.260
-2.104,1.238,1.616,137.695,-161.743,-182.739
-2.552,1.080,2.090,104.736,-161.621,-227.112
-2.677,1.127,2.621,27.283,-150.269,-268.616
-2.982,1.575,3.678,14.587,-119.812,-293.640
-3.293,1.273,4.000,65.674,-6.958,-376.343
-3.450,0.982,4.000,127.441,142.883,-427.490
-3.880,0.947,3.195,253.174,224.670,-444.763
-4.000,-0.751,2.166,295.593,305.237,-537.354
-3.979,-1.505,2.116,292.969,315.735,-486.633
-3.552,-1.892,1.641,335.022,327.087,-397.400
-3.279,-2.312,1.162,352.905,358.459,-212.463
-3.257,-1.971,1.225,300.659,370.667,-84.717
-3.072,-1.361,1.059,175.720,416.016,65.247
-3.111,-1.267,0.657,90.210,450.867,123.535
-3.180,-1.285,0.267,57.495,467.590,147.827
-2.926,-1.505,-0.395,-5.981,460.876,191.223
-2.832,-1.631,-0.451,-53.406,421.875,261.292
-2.741,-1.436,-0.499,-56.641,414.307,304.260
-2.789,-0.924,-0.963,-3.235,425.598,380.310
-2.742,-0.451,-1.561,48.828,409.729,435.974
-2.591,-0.223,-1.770,61.096,372.009,453.369
-2.284,0.410,-1.649,59.143,258.362,474.304
-2.033,0.600,-1.500,46.021,187.256,456.055
-1.740,0.615,-1.351,46.021,169.861,432.617
-1.668,0.490,-1.423,80.933,134.033,409.546
-1.645,0.614,-1.428,100.647,104.736,414.368
-1.451,1.073,-1.059,122.498,26.245,430.481
-1.388,1.213,-0.738,146.912,-14.526,424.805
-1.331,1.365,-0.359,157.104,-7.446,414.551
-1.214,1.711,-0.783,187.378,-2.319,348.572
-1.205,1.803,-0.908,176.697,-15.991,335.632
-1.265,1.803,-0.903,195.618,-78.247,298.645
-1.304,1.419,-0.824,196.289,-137.024,181.946
-1.412,0.799,-0.509,183.411,-174.683,136.292
-1.417,0.709,0.300,190.063,-231.628,137.939
-1.390,1.203,0.351,191.345,-221.191,129.517
-1.362,1.544,0.227,178.345,-214.478,115.479
-1.468,1.899,-0.109,176.025,-230.652,55.542
-1.628,1.581,-0.126,160.522,-269.775,-37.842
-1.858,1.066,0.552,165.100,-299.133,-56.519
-1.854,0.891,1.163,186.096,-302.795,-89.722
-1.755,0.579,1.283,187.866,-247.925,-119.568
-1.640,0.517,1.145,202.576,-218.445,-127.991
-1.506,0.553,1.155,230.042,-189.270,-147.461
-1.544,0.937,1.112,221.497,-150.208,-174.622
-1.718,1.012,1.026,209.473,-136.719,-201.172
-2.064,0.186,0.663,161.682,-139.709,-272.400
-1.864,-0.801,1.536,120.667,-207.886,-290.527
-1.759,-0.364,2.443,93.140,-161.255,-209.778
-1.553,0.016,2.300,102.112,-97.046,-180.725
-1.512,-0.122,1.371,112.061,-7.080,-185.730
-1.360,-0.639,1.112,115.662,-8.179,-169.434
-1.246,-0.709,1.156,106.873,-10.498,-142.578
-1.043,-0.343,1.275,72.937,0.366,-80.994
-0.900,0.047,1.225,34.973,28.809,-50.903
-0.843,0.133,1.120,24.170,44.312,-46.265
-0.762,0.111,0.573,18.066,75.806,-41.931
-0.726,0.069,0.255,15.259,69.092,-27.771
-0.649,0.119,0.099,1.038,44.189,-15.564
-0.572,0.282,0.299,-11.353,15.320,3.662
-0.564,0.355,0.307,-13.489,15.320,9.644
-0.552,0.542,0.377,-9.460,9.521,17.700
-0.547,0.681,0.477,0.122,8.179,15.503
-0.555,0.687,0.465,2.686,12.512,9.827
-0.588,0.608,0.288,4.822,20.508,-0.061
-0.592,0.604,0.228,4.883,16.418,-1.038
-0.595,0.665,0.272,4.456,0.061,-2.625
-0.590,0.653,0.395,5.310,-14.160,-11.536
-0.584,0.512,0.610,8.423,-11.902,-14.648
-0.597,0.468,0.556,14.771,-0.305,-12.512
-0.597,0.479,0.533,16.968,0.916,-10.193
-0.602,0.482,0.509,17.151,1.038,-7.446
-0.603,0.513,0.512,13.184,-1.343,-5.371
-0.606,0.516,0.538,10.864,-2.686,-5.432
-0.610,0.469,0.547,8.362,-2.014,-6.592
-0.611,0.449,0.558,6.958,-2.258,-4.517
-0.633,0.408,0.567,4.456,-2.991,-2.625
-0.642,0.437,0.630,4.272,-5.737,3.296
-0.638,0.510,0.664,2.991,-4.822,6.531
-0.637,0.610,0.611,0.671,1.038,6.531
-0.637,0.628,0.579,-0.671,1.160,1.892
-0.631,0.628,0.602,-0.732,-0.061,0.000
-0.624,0.542,0.590,0.916,2.136,-3.601
-0.617,0.519,0.512,4.517,3.723,-1.465
-0.616,0.528,0.501,5.005,2.197,-0.305
-0.606,0.523,0.525,3.113,-1.709,0.000
-0.614,0.562,0.536,2.808,-1.282,0.488
-0.620,0.580,0.541,2.991,-1.343,0.183
-0.627,0.592,0.577,3.723,-2.014,-2.502
-0.627,0.545,0.616,2.747,-0.671,-6.348
-0.627,0.525,0.600,3.235,1.221,-7.141
-0.613,0.485,0.551,5.005,2.441,-6.958

-0.784,2.021,0.430,39.978,-98.389,112.061
-0.779,2.335,0.500,43.213,-112.183,77.332
-0.921,2.812,0.729,44.067,-129.150,-16.968
-1.272,2.278,0.840,33.508,-124.634,-158.203
-1.385,1.987,1.028,30.334,-127.869,-205.383
-1.597,1.468,1.849,35.889,-125.854,-265.381
-1.882,1.567,2.422,64.880,-61.890,-291.626
-2.019,1.681,2.685,96.436,-21.545,-310.120
-2.454,1.768,3.098,183.289,72.327,-360.413
-2.894,1.123,2.577,291.138,194.702,-419.678
-3.014,0.551,2.174,331.299,237.305,-440.430
-2.770,-0.605,2.016,364.685,252.808,-432.312
-2.603,-0.920,2.614,402.588,260.986,-360.168
-2.410,-1.234,2.409,424.500,313.110,-295.410
-2.375,-1.378,1.113,452.881,410.156,-168.335
-2.187,-1.393,0.710,364.197,367.676,-31.677
-2.148,-1.424,0.921,300.293,329.651,28.564
-2.117,-1.493,0.882,201.355,324.280,122.437
-2.167,-1.573,0.356,123.047,331.787,203.796
-2.164,-1.444,0.169,95.032,316.162,250.000
-2.144,-1.011,-0.154,88.013,269.592,330.872
-2.014,-0.932,-0.271,89.111,219.788,379.639
-1.940,-0.860,-0.259,101.746,192.871,403.809
-1.978,-0.541,-0.516,104.614,171.753,449.829
-1.884,-0.465,-0.783,104.675,150.940,476.746
-1.797,0.082,-0.974,104.187,106.689,490.295
-1.467,0.637,-0.826,77.881,31.677,480.713
-1.305,0.506,-0.669,54.932,5.859,453.430
-1.259,0.151,-0.567,36.316,-9.338,418.457
-1.207,0.148,-0.624,49.255,-46.875,421.875
-1.250,0.266,-0.376,73.181,-53.406,422.424
-1.245,0.166,0.122,101.501,-81.848,417.542
-1.311,0.134,0.118,117.065,-70.007,418.091
-1.468,0.563,-0.200,130.188,-63.965,431.152
-1.497,1.384,0.019,128.540,-103.149,446.655
-1.454,1.815,0.057,130.798,-109.863,455.505
-1.653,2.071,-0.099,136.108,-110.901,339.294
-1.763,1.746,-0.113,145.386,-123.108,259.766
-1.969,1.616,0.215,158.813,-163.513,246.582
-1.805,1.934,0.733,201.965,-184.143,206.360
-1.646,2.029,0.695,224.915,-167.053,168.518
-1.524,1.678,0.116,255.493,-137.329,69.336
-1.699,0.853,-0.242,223.267,-163.635,-12.695
-1.910,0.480,-0.230,170.471,-228.760,-36.194
-2.009,0.755,0.058,151.794,-272.644,-29.053
-1.959,1.159,1.136,136.780,-339.050,-46.936
-1.866,1.270,1.581,150.757,-287.170,-107.483
-1.833,1.236,1.312,154.419,-204.956,-174.683
-1.786,1.466,0.723,153.931,-182.312,-205.566
-2.048,1.494,0.717,179.504,-157.654,-289.185
-2.393,1.057,1.364,204.285,-154.236,-388.306
-2.488,0.450,1.549,239.197,-85.815,-460.571
-2.568,0.402,1.090,255.737,-26.306,-474.243
-3.009,0.339,-0.229,230.042,48.889,-495.911
-3.389,-0.215,-0.443,141.968,-48.218,-513.428
-3.364,-0.364,0.428,41.260,-176.147,-480.225
-3.195,-0.709,1.761,49.377,-236.084,-476.074
-2.688,-1.481,1.654,158.081,-120.911,-460.876
-2.086,-1.969,0.877,268.921,-60.913,-409.729
-1.822,-2.125,0.755,284.241,-93.567,-409.058
-1.271,-3.820,1.810,253.601,-124.512,-339.783
-0.746,-1.726,2.425,213.989,-60.364,40.588
-0.539,0.269,0.975,120.239,89.294,173.584
-0.578,1.099,-0.120,11.963,128.479,172.485
-0.544,1.528,-0.396,-50.171,61.218,126.343
-0.520,1.567,-0.065,-64.453,0.732,29.297
-0.508,0.959,0.946,-50.476,-59.570,-16.602
-0.443,0.125,1.186,6.165,-8.484,-65.186
-0.441,-0.383,0.599,32.410,52.856,-50.293
-0.470,-0.356,0.071,27.161,52.063,1.526
-0.471,0.208,0.234,9.766,1.526,56.030
-0.425,0.508,0.426,7.996,-14.709,68.481
-0.416,1.057,0.635,11.353,-19.653,61.523
-0.422,1.034,0.690,15.198,-14.099,11.353
-0.463,0.367,0.848,9.949,-13.489,-35.339
-0.417,0.005,0.893,6.653,-4.089,-36.804
-0.432,-0.101,0.827,5.188,6.714,-12.390
-0.452,0.009,0.655,5.615,4.578,5.005
-0.458,0.439,0.796,2.319,-12.512,33.936
-0.456,0.726,0.963,0.366,-18.433,32.288
-0.455,0.764,1.017,1.587,-11.536,12.634
-0.438,0.651,0.999,1.587,-1.282,-8.118
-0.439,0.432,0.925,3.784,2.380,-10.193
-0.441,0.418,0.731,13.184,9.827,-5.676
-0.439,0.350,0.668,13.367,3.357,-5.432
-0.452,0.349,0.736,9.094,-1.770,-3.296
-0.452,0.361,0.756,5.920,-4.517,-1.343
-0.458,0.379,0.828,4.456,-7.080,-0.549
-0.457,0.350,0.896,2.380,-8.789,1.160
-0.456,0.407,0.884,4.822,-2.258,7.507
-0.462,0.507,0.702,9.705,6.042,8.301
-0.475,0.498,0.731,8.850,-3.479,1.160
-0.469,0.484,0.803,10.437,-7.568,-1.343
-0.473,0.466,0.834,13.245,-2.991,-6.470
-0.475,0.320,0.810,13.916,-0.671,-14.771
-0.449,0.201,0.795,14.038,3.845,-9.277
-0.442,0.389,0.586,18.738,11.536,5.432
-0.440,0.471,0.557,20.569,-10.010,5.066
-0.437,0.526,0.684,15.503,-8.301,1.282
-0.439,0.495,0.832,10.742,-11.353,-6.958

-0.621,1.439,1.488,-28.259,-95.398,15.442
-0.646,1.652,1.798,-4.761,-68.115,-20.630
-0.764,1.721,2.066,9.399,-39.063,-36.194
-0.905,1.703,2.019,46.387,7.507,-89.905
-0.941,1.538,2.196,64.514,17.761,-126.526
-1.065,0.991,2.503,108.521,62.744,-171.753
-1.110,0.889,2.565,158.752,117.859,-180.664
-1.284,1.021,2.661,176.147,146.179,-184.998
-1.495,0.410,2.831,209.045,199.097,-219.543
-1.643,0.015,2.825,235.046,230.164,-225.647
-1.758,-0.549,2.076,313.110,311.218,-201.782
-1.409,-1.085,1.322,361.267,326.538,-156.982
-1.743,-1.262,1.270,343.201,306.030,-124.451
-1.732,-1.035,1.322,285.156,272.095,6.775
-1.784,-1.059,1.282,217.896,271.179,67.810
-1.952,-1.354,1.278,182.312,273.560,97.351
-2.197,-1.479,1.117,133.667,288.147,172.180
-2.284,-1.457,0.830,121.643,302.979,247.559
-2.422,-1.454,0.215,103.149,307.922,281.982
-2.591,-1.329,-0.088,56.152,280.151,357.178
-2.575,-1.213,-0.253,16.724,268.127,424.255
-2.637,-0.816,-0.722,18.738,258.606,454.895
-2.645,-0.494,-0.705,44.617,189.026,502.930
-2.596,-0.346,-0.403,35.828,152.222,521.729
-2.561,0.152,-0.710,44.495,162.903,553.528
-2.400,0.797,-1.501,93.445,148.254,568.970
-2.274,1.102,-1.638,110.352,96.436,565.186
-1.998,0.959,-0.799,113.892,-50.903,509.216
-1.863,0.497,-0.197,116.394,-79.346,474.731
-1.907,0.536,-0.265,116.760,-69.885,476.746
-1.815,1.307,-0.232,108.093,-87.830,498.535
-1.817,1.912,-0.251,107.788,-100.159,490.906
-1.737,1.937,-0.098,133.179,-130.432,399.048
-1.732,1.566,0.373,176.208,-131.042,364.075
-1.834,1.445,0.477,192.322,-104.614,325.317
-2.234,1.656,0.243,163.452,-93.567,317.749
-2.295,2.504,0.290,134.888,-123.108,330.566
-2.200,3.464,0.401,143.677,-143.738,332.275
-1.703,4.000,0.858,204.041,-167.969,142.578
-1.500,2.375,1.249,274.231,-120.544,-132.202
-1.485,1.377,0.969,303.711,-67.566,-205.566
-1.378,0.200,-0.003,311.462,-5.737,-247.009
-1.284,-0.436,-0.299,258.179,-57.861,-222.900
-1.247,-0.424,-0.303,214.600,-118.530,-156.982
-1.304,0.295,-0.681,185.547,-140.198,-136.108
-1.618,0.522,-0.708,142.395,-225.098,-146.118
-1.844,0.572,0.813,92.285,-353.577,-168.640
-1.811,0.640,1.693,99.304,-388.916,-214.294
-1.778,0.299,2.634,114.746,-294.312,-244.934
-1.916,-0.285,1.419,134.338,-141.174,-284.729
-1.971,-0.655,1.034,123.962,-133.423,-282.959
-2.011,-0.570,0.973,121.765,-141.846,-250.732
-1.964,-0.007,1.200,120.728,-144.470,-214.661
-1.979,0.337,1.428,129.639,-134.827,-222.900
-2.056,0.890,2.082,143.982,-118.347,-249.146
-2.318,0.918,2.451,164.795,-33.264,-331.604
-2.407,0.583,2.235,175.049,29.907,-381.226
-2.539,0.421,1.409,227.661,124.084,-420.227
-2.448,0.157,0.661,288.757,168.335,-447.998
-2.339,-0.147,0.305,311.523,182.068,-457.825
-1.901,-1.233,-0.954,302.124,224.609,-464.478
-1.526,-1.791,-1.817,221.191,150.269,-473.938
-1.197,-3.262,-1.489,147.156,52.002,-482.361
-0.830,-3.424,0.519,13.855,-126.404,-61.890
-0.649,-0.367,1.288,-30.212,-85.754,209.167
-0.599,1.049,1.148,-65.552,-12.756,278.076
-0.577,1.352,0.957,-55.481,9.521,247.620
-0.519,1.637,0.977,-54.321,9.094,142.456
-0.454,1.543,1.066,-43.274,27.161,16.357
-0.435,0.499,0.757,-31.738,52.856,-23.437
-0.428,0.116,0.199,-12.329,69.458,-18.494
-0.406,0.163,0.025,-8.972,58.411,-2.441
-0.388,0.387,0.117,-5.249,13.062,19.653
-0.382,0.516,0.440,10.376,-16.846,21.179
-0.378,0.531,0.626,17.639,-27.039,17.761
-0.375,0.512,0.894,25.391,-28.259,9.399
-0.375,0.579,0.950,20.325,-14.893,3.906
-0.392,0.542,0.903,15.869,-7.263,-1.953
-0.394,0.359,0.785,10.132,-1.709,-11.353
-0.398,0.298,0.799,12.146,-8.118,-6.897
-0.404,0.241,0.844,10.254,-10.925,-5.371
-0.413,0.217,0.914,5.493,-10.742,2.014
-0.418,0.273,0.944,3.235,-9.766,12.390
-0.411,0.516,1.033,-1.648,-7.690,14.832
-0.405,0.590,0.991,-0.427,3.296,4.456
-0.403,0.517,0.923,1.038,10.437,-7.568
-0.404,0.366,0.835,3.479,10.620,-9.216
-0.398,0.276,0.702,6.165,10.437,-5.554
-0.387,0.296,0.691,7.874,0.793,2.014
-0.375,0.361,0.771,7.080,-0.854,3.235
-0.385,0.326,0.738,4.333,1.282,2.869
-0.391,0.319,0.740,2.930,-0.488,4.028
-0.382,0.411,0.844,-0.671,-6.775,8.972
-0.388,0.566,0.905,-0.427,-3.235,6.714
-0.393,0.543,0.854,0.000,1.526,-0.061
-0.400,0.409,0.798,0.000,2.075,-10.193
-0.404,0.302,0.829,0.061,-0.549,-10.742
-0.403,0.265,0.826,-0.183,0.061,-8.850
-0.403,0.268,0.817,0.732,-0.122,-1.221
-0.395,0.340,0.857,2.686,-1.526,3.723

-0.637,1.283,1.074,-19.165,-108.459,65.918
-0.655,1.486,1.254,-15.747,-107.727,51.025
-0.643,1.755,1.678,-3.235,-96.313,9.827
-0.783,2.296,2.090,21.057,-64.148,-0.488
-0.894,2.693,2.113,52.307,-32.104,-50.781
-1.199,1.913,2.140,76.660,24.536,-226.196
-1.226,1.293,2.236,122.314,71.106,-309.082
-1.343,0.485,2.395,154.663,98.083,-321.655
-1.365,0.153,2.460,210.327,151.062,-317.322
-1.416,0.002,2.270,276.184,208.374,-300.293
-1.509,-0.275,2.080,292.786,239.380,-302.429
-1.470,-0.883,1.567,307.068,276.367,-297.668
-1.418,-1.244,1.465,287.903,253.967,-255.859
-1.313,-1.314,1.510,263.916,239.319,-201.904
-1.511,-1.422,1.745,224.121,231.873,-112.549
-1.717,-1.485,2.072,206.299,239.502,-38.513
-2.056,-1.716,2.601,184.326,262.512,33.203
-2.310,-1.771,2.473,181.946,308.044,80.688
-2.710,-1.760,1.633,192.505,385.315,180.908
-2.756,-1.652,0.794,188.660,388.489,291.870
-3.079,-1.658,0.532,173.035,369.263,350.342
-3.166,-1.351,0.533,118.591,322.327,479.492
-3.334,-0.853,0.596,110.535,308.716,594.971
-3.571,-0.163,0.420,133.911,303.040,624.817
-3.650,0.216,0.222,144.226,278.687,660.095
-3.671,0.463,0.313,145.691,260.254,671.936
-3.683,1.415,0.211,164.185,275.024,710.205
-3.447,1.850,-0.189,261.597,309.814,703.003
-2.783,2.915,-1.338,303.711,287.292,625.671
-1.950,2.202,-1.322,308.105,88.867,432.739
-1.789,1.180,-0.674,282.104,-58.899,314.331
-1.702,-0.146,0.241,251.709,-75.195,323.486
-1.949,-0.132,0.349,258.545,-58.228,398.010
-2.046,0.056,0.243,255.493,-58.594,440.979
-2.350,0.441,0.490,213.562,-102.417,446.594
-2.233,1.080,1.047,238.586,-129.272,451.721
-2.097,1.595,1.314,240.906,-127.258,440.308
-1.854,2.528,1.418,264.893,-64.148,363.037
-1.503,2.720,0.890,300.049,-7.202,234.253
-1.416,2.653,0.681,305.786,-0.549,169.861
-1.508,1.813,0.368,303.284,-4.395,40.771
-1.539,1.271,0.291,297.729,-13.489,-6.348
-1.497,0.720,0.221,290.039,-42.236,-48.706
-1.527,0.661,0.339,266.724,-71.350,-80.750
-1.578,0.671,0.294,255.676,-75.562,-102.173
-1.737,0.873,-0.014,246.704,-90.759,-142.761
-1.865,0.955,0.135,218.628,-154.541,-197.693
-1.953,0.968,0.365,210.022,-182.617,-227.539
-1.958,0.657,1.281,211.853,-227.600,-298.035
-1.853,0.268,2.328,247.620,-206.848,-362.183
-1.856,0.051,2.380,257.874,-145.752,-391.907
-1.918,-0.427,2.012,225.159,-33.569,-441.101
-2.041,-0.128,1.548,167.603,39.795,-438.110
-2.413,0.701,0.793,144.287,83.923,-453.308
-2.596,0.828,0.588,131.104,71.777,-495.239
-3.094,0.742,1.006,93.018,12.207,-598.083
-3.452,0.516,1.252,96.130,7.568,-647.583
-3.932,-0.083,1.582,121.094,36.987,-717.285
-4.000,-0.705,1.359,180.481,112.549,-738.403
-3.922,-0.990,0.871,200.867,155.701,-743.103
-3.245,-1.673,-0.026,203.247,177.246,-706.482
-2.403,-1.973,-0.252,157.593,96.008,-629.456
-2.090,-2.405,-0.147,137.695,49.500,-605.530
-1.326,-3.207,0.121,112.122,-17.334,-444.824
-0.730,-3.168,0.489,131.714,-64.514,-198.181
-0.547,-2.542,0.754,125.244,-90.454,11.169
-0.335,-1.001,1.140,100.159,-80.994,72.937
-0.255,-0.159,1.109,37.476,-42.358,128.906
-0.222,0.173,1.008,-9.277,-16.418,157.227
-0.182,0.791,0.947,-29.114,-15.869,162.109
-0.125,1.004,1.093,-56.091,-14.954,120.728
-0.097,0.732,0.964,-43.335,4.456,24.231
-0.128,0.388,0.814,-27.100,10.742,-1.221
-0.148,0.016,0.551,-3.967,10.254,-2.686
-0.179,0.077,0.385,-3.601,-2.380,22.095
-0.181,0.138,0.425,-7.996,-16.479,30.334
-0.188,0.301,0.878,-10.803,-51.025,37.537
-0.160,0.611,1.426,-2.502,-59.631,35.706
-0.154,0.646,1.557,0.916,-44.739,22.339
-0.189,0.239,1.323,9.644,6.348,-14.465
-0.199,-0.122,0.876,18.799,24.292,-16.418
-0.187,-0.160,0.791,20.081,16.541,-6.836
-0.190,0.000,0.716,10.254,3.723,17.212
-0.192,0.278,0.915,1.160,-14.526,26.794
-0.190,0.336,1.073,-2.380,-19.897,22.339
-0.177,0.356,1.232,-1.831,-12.451,8.728
-0.178,0.307,1.199,-0.061,-2.869,0.977
-0.187,0.094,0.942,-1.892,13.123,-8.301
-0.189,0.034,0.841,-3.784,6.531,-0.793
-0.189,0.086,0.858,-4.333,1.648,4.639
-0.192,0.141,0.896,-2.747,-3.235,8.362
-0.197,0.095,1.000,-0.916,-8.118,7.446
-0.190,0.126,1.062,8.240,-6.775,11.902
-0.193,0.190,1.090,9.888,-1.831,10.864
-0.200,0.188,0.931,8.301,7.874,8.850
-0.197,0.218,0.896,8.240,6.165,9.216
-0.203,0.183,0.914,4.272,0.854,5.310
-0.201,0.137,0.913,0.671,-1.587,4.089
-0.207,0.110,0.979,-0.977,-3.479,5.188
-0.206,0.102,1.020,-0.854,-1.526,6.958

-0.182,0.688,1.975,25.452,-29.968,-33.386
-0.215,0.552,2.104,39.246,-20.752,-49.805
-0.275,0.329,2.318,63.965,3.174,-67.139
-0.354,0.558,2.641,94.238,27.893,-68.298
-0.398,0.708,2.847,110.535,43.823,-78.247
-0.622,0.461,2.951,154.419,102.905,-127.441
-0.739,0.085,2.720,186.951,139.160,-150.757
-0.958,-0.534,2.429,261.719,173.035,-161.865
-1.044,-0.817,2.369,297.852,197.571,-145.996
-1.210,-1.145,2.130,334.290,210.937,-125.732
-1.400,-1.293,1.902,294.556,236.389,-47.974
-1.606,-1.504,1.913,222.961,249.268,11.963
-1.728,-1.595,2.109,178.589,252.258,43.213
-2.057,-1.761,2.176,122.559,294.678,114.624
-2.218,-1.842,1.987,115.967,339.050,196.533
-2.677,-1.575,1.533,136.414,350.464,251.892
-3.001,-1.423,0.916,169.312,363.708,346.680
-3.174,-1.480,0.722,144.348,364.807,387.268
-3.452,-1.353,0.277,85.144,370.789,477.539
-3.588,-0.982,-0.166,84.412,353.027,560.730
-3.685,-0.799,-0.305,87.219,341.370,591.919
-3.840,-0.273,-0.463,151.611,298.340,650.024
-3.828,0.413,-0.257,208.374,235.413,684.937
-3.781,0.594,-0.058,228.821,204.895,684.998
-3.766,0.608,0.157,265.137,156.372,671.875
-3.762,0.803,0.220,295.471,121.216,693.298
-3.690,1.621,0.071,310.974,102.417,713.135
-3.188,2.000,0.312,326.538,29.114,698.486
-2.903,2.308,0.476,310.791,6.897,662.415
-2.291,1.898,0.560,282.776,9.949,480.957
-2.077,1.117,0.228,291.199,19.104,390.564
-2.005,1.005,0.115,297.363,3.967,374.634
-1.651,1.022,0.474,298.889,-56.335,342.590
-2.093,1.093,0.839,263.977,-67.505,286.865
-1.861,1.151,0.791,334.351,-40.283,266.968
-2.026,1.261,0.198,340.271,-20.935,196.899
-2.020,1.193,-0.037,340.454,-37.598,128.235
-2.104,1.550,0.043,325.012,-125.610,104.614
-2.006,1.342,0.738,298.828,-204.712,15.991
-1.932,1.306,1.002,283.142,-217.102,-61.951
-1.805,1.083,1.139,277.954,-200.073,-105.042
-1.753,0.442,0.857,269.653,-167.358,-184.326
-1.726,0.311,0.846,249.451,-159.058,-218.323
-1.698,0.325,0.925,240.723,-150.940,-231.506
-1.739,0.426,0.898,245.361,-115.845,-259.888
-1.732,0.154,0.967,253.052,-83.496,-302.124
-1.686,0.153,1.001,261.963,-64.514,-315.430
-1.635,0.326,0.928,270.508,-14.709,-342.712
-1.803,0.523,0.872,267.578,34.851,-388.977
-1.930,0.570,0.658,266.663,63.232,-418.701
-2.351,0.986,0.725,227.722,69.519,-483.276
-3.112,1.262,0.833,208.862,84.106,-581.604
-3.593,1.421,0.888,196.289,91.125,-638.794
-4.000,1.627,0.780,203.491,118.286,-761.780
-4.000,1.691,0.701,208.557,128.052,-824.890
-4.000,0.026,-0.258,269.775,167.358,-1001.099
-4.000,-2.649,-1.759,268.738,146.912,-1166.138
-4.000,-4.000,-2.151,215.759,58.228,-1212.158
-2.731,-4.000,-0.626,191.040,-228.516,-722.534
-1.413,-4.000,1.288,190.674,-329.163,-55.908
-0.910,-0.945,2.869,125.671,-272.034,292.175
-0.415,0.960,3.050,20.813,-89.050,389.893
-0.376,1.635,2.703,-10.925,-5.859,328.369
-0.207,1.894,1.499,-61.279,112.122,183.228
-0.212,1.459,0.948,-69.153,129.883,-29.358
-0.249,-0.018,0.292,-64.209,107.300,-59.937
-0.203,-0.325,0.095,-15.137,39.978,-29.541
-0.207,-0.188,0.463,-5.554,-8.667,9.949
-0.203,0.143,1.218,-10.498,-41.016,15.991
-0.192,0.453,1.328,-11.108,-6.958,14.954
-0.193,0.402,1.197,-7.996,9.216,2.197
-0.209,0.073,1.002,1.465,17.700,-18.372
-0.210,-0.056,0.855,13.245,19.470,-12.573
-0.220,-0.010,0.722,18.921,18.005,-1.160
-0.235,-0.051,0.658,23.010,9.827,-1.099
-0.211,-0.216,0.797,19.348,-3.174,1.526
-0.213,-0.206,0.863,14.893,-6.226,18.860
-0.214,-0.007,0.986,12.878,-5.981,24.536
-0.206,0.132,1.023,5.188,0.183,22.583
-0.198,0.131,1.000,1.953,3.784,17.883
-0.176,0.083,0.975,-3.723,6.775,11.108
-0.170,0.120,0.912,-7.141,13.977,11.475
-0.174,0.241,0.697,-9.766,13.855,8.423
-0.191,0.107,0.747,-14.221,-0.427,-2.808
-0.191,0.022,0.775,-10.132,-4.395,-3.357
-0.181,-0.022,0.963,-0.061,-14.893,-0.305
-0.182,0.040,1.048,5.005,-8.911,5.127
-0.181,0.154,0.979,9.949,-2.014,5.859
-0.184,0.099,0.960,7.996,-1.648,0.183
-0.185,0.088,0.946,1.770,-1.648,2.014
-0.180,0.105,1.000,-2.502,-4.089,1.282
-0.188,0.057,1.017,-4.333,-1.770,-0.244
-0.193,0.055,0.951,-2.991,-2.136,0.488
-0.193,0.022,1.075,-3.784,-7.629,0.488
-0.193,0.022,1.066,-3.357,2.197,4.761
-0.189,0.115,0.891,-1.221,3.723,6.897
-0.188,0.109,0.924,-3.784,-4.333,4.700
-0.186,0.122,1.025,-1.404,-7.263,4.272
-0.190,0.128,1.076,-0.427,-6.653,3.235
-0.194,0.052,1.105,1.770,-1.465,-0.549

-0.309,0.075,2.229,26.062,1.953,-73.181
-0.347,-0.029,2.362,26.978,15.625,-78.186
-0.464,-0.041,2.564,25.330,53.589,-81.726
-0.547,0.048,2.613,41.748,96.680,-92.346
-0.641,0.063,2.607,56.946,115.723,-100.159
-0.769,-0.333,2.412,105.103,158.020,-120.361
-0.832,-0.651,2.037,148.132,190.857,-107.788
-0.957,-0.664,1.988,169.739,192.444,-88.623
-1.088,-0.400,2.172,209.778,191.833,-39.185
-1.154,-0.335,2.329,207.336,217.590,-18.005
-1.356,-0.692,2.653,178.833,240.784,-14.893
-1.763,-1.113,2.514,126.892,326.416,13.794
-1.932,-1.170,1.689,97.961,400.269,89.050
-2.092,-1.008,1.452,89.722,408.936,130.859
-2.271,-0.750,1.395,69.275,408.020,192.932
-2.348,-0.652,1.455,55.237,418.762,213.135
-2.555,-0.818,1.183,10.376,477.966,227.539
-2.744,-1.224,0.654,-0.061,527.710,251.892
-2.819,-1.193,0.440,4.272,537.598,282.593
-2.931,-0.777,-0.018,31.372,539.001,359.375
-2.895,-0.627,-0.113,46.692,502.563,404.175
-2.911,-0.334,0.230,51.392,489.929,421.997
-3.108,-0.151,0.206,83.679,503.540,452.942
-3.224,-0.020,-0.064,93.811,517.639,470.886
-3.270,0.031,-0.405,97.595,507.996,489.441
-3.243,0.384,-0.534,110.229,459.167,512.573
-3.126,0.547,-0.408,132.629,421.143,516.357
-3.177,0.655,0.116,162.598,360.779,505.371
-3.188,0.633,0.114,180.725,359.985,496.765
-3.234,1.100,-0.161,220.764,351.868,495.728
-2.841,1.655,-0.555,255.615,322.144,480.957
-2.535,1.936,-0.475,258.789,278.076,420.715
-2.169,1.732,-0.072,271.118,213.318,276.245
-2.101,1.311,-0.064,306.458,213.318,153.503
-2.232,0.180,-0.514,325.378,213.257,121.887
-2.402,-0.442,-0.889,345.703,167.419,131.836
-2.374,0.111,-0.421,362.000,66.589,184.326
-2.248,0.399,-0.120,376.221,32.837,187.744
-1.956,0.750,0.233,394.958,-1.038,158.325
-1.813,0.705,0.405,394.104,-12.573,132.507
-1.667,0.613,0.689,383.423,-16.968,89.111
-1.600,0.697,0.675,383.240,-1.404,53.589
-1.590,0.911,0.528,386.597,4.700,37.476
-1.556,1.173,0.427,392.700,-10.925,-26.062
-1.536,1.110,0.446,390.564,-33.691,-113.708
-1.550,0.878,0.565,382.263,-40.161,-149.475
-1.592,0.744,0.395,387.207,-43.945,-217.102
-1.615,0.645,0.373,372.742,-79.102,-285.767
-1.544,0.675,0.600,364.258,-108.276,-319.763
-1.689,0.763,1.314,354.492,-148.315,-396.179
-1.897,0.632,1.551,361.267,-135.559,-441.162
-2.189,0.269,1.723,358.765,-78.430,-525.269
-2.305,0.587,1.601,331.970,0.366,-559.143
-2.401,1.103,1.751,304.687,28.992,-567.078
-3.265,2.163,2.026,316.162,115.112,-631.775
-3.955,2.492,1.938,322.449,279.480,-781.738
-4.000,2.132,0.444,350.830,375.000,-886.414
-4.000,0.083,-2.065,237.610,447.327,-1115.112
-4.000,-1.689,-2.842,200.745,328.003,-1195.129
-4.000,-3.954,-1.816,26.672,-71.899,-1274.963
-2.427,-4.000,1.360,-7.507,-380.554,-790.710
-1.428,-4.000,2.532,0.671,-353.577,-194.214
-0.531,-3.135,1.575,150.085,-88.379,36.621
-0.250,-0.347,1.030,127.136,-55.176,222.229
-0.110,0.132,1.609,72.266,-95.642,231.140
0.057,0.959,2.500,9.216,-76.782,205.139
0.011,1.288,2.015,9.277,41.626,95.520
-0.034,0.852,1.275,2.991,100.037,23.560
-0.069,0.009,0.185,-20.508,117.065,-32.532
-0.067,-0.056,0.064,-27.466,37.720,-5.737
-0.059,0.099,0.236,-26.184,-0.366,5.554
-0.026,0.001,0.752,-13.977,-50.110,-4.517
0.002,0.007,1.168,-7.874,-54.993,4.333
0.010,0.150,1.267,-4.822,-44.861,17.273
0.007,0.312,1.238,-1.587,-14.893,13.794
-0.019,0.147,0.973,-1.526,9.155,0.854
-0.022,0.062,0.873,-2.319,12.268,15.320
-0.067,0.092,0.727,6.714,7.263,6.165
-0.073,0.061,0.789,20.508,-11.353,4.761
-0.059,0.048,0.897,21.545,-24.902,6.470
-0.023,0.136,1.145,21.484,-24.536,8.179
-0.028,0.158,1.083,14.954,-2.014,4.944
-0.039,0.115,0.928,2.991,11.536,1.404
-0.048,0.112,0.695,-3.296,5.920,2.930
-0.037,0.176,0.944,-10.254,-18.799,2.075
-0.033,0.135,1.065,-8.606,-14.771,-5.737
-0.047,0.030,1.022,-1.953,-6.897,-6.165
-0.048,0.010,0.919,-1.953,-2.502,-1.465
-0.055,0.042,0.957,-3.052,-7.751,3.296
-0.047,0.126,1.020,-1.892,-9.705,7.019
-0.048,0.133,1.075,0.610,-10.681,5.615
-0.053,0.099,1.051,3.174,-4.028,0.916
-0.048,0.108,0.969,7.202,-2.808,-1.160
-0.050,0.081,0.989,6.165,-5.554,-3.052
-0.057,0.068,0.986,5.188,-3.906,-1.953
-0.059,0.068,0.991,2.319,-4.456,-0.732
-0.071,0.068,1.023,0.427,-5.737,-0.671
-0.056,0.002,1.072,-2.747,-3.296,-1.099
-0.051,0.050,1.042,1.038,1.282,3.235
-0.057,0.118,0.972,3.357,4.211,5.249

-0.245,-0.349,2.250,89.844,50.293,-70.679
-0.274,-0.289,2.343,105.469,61.279,-65.430
-0.406,-0.248,2.482,143.066,90.088,-67.688
-0.486,-0.376,2.488,163.513,126.160,-83.374
-0.682,-0.777,2.388,215.698,142.151,-86.060
-0.914,-1.149,1.906,254.395,182.922,-75.745
-0.949,-1.383,1.586,237.671,187.744,-20.386
-1.021,-1.316,1.797,221.497,172.729,19.287
-1.185,-1.126,2.249,180.725,187.622,81.116
-1.299,-1.040,2.315,128.906,255.798,128.235
-1.585,-0.966,1.980,92.407,294.678,145.508
-1.812,-0.853,1.744,15.259,351.379,188.843
-1.894,-0.825,1.515,-14.893,380.066,205.017
-2.009,-0.778,1.427,-54.382,399.841,227.234
-2.210,-0.908,1.284,-64.575,437.195,243.896
-2.318,-0.927,1.217,-55.664,453.308,259.094
-2.515,-0.558,0.767,-9.888,488.647,305.908
-2.639,-0.534,0.390,1.892,496.765,332.764
-2.693,-0.579,0.422,-11.475,491.455,350.403
-2.952,-0.378,0.354,-15.930,515.076,391.907
-3.066,0.089,-0.416,22.461,554.504,421.692
-2.981,0.398,-0.777,58.655,550.293,426.636
-2.631,0.892,-1.000,130.493,453.918,408.386
-2.487,0.809,-0.760,144.775,391.418,382.202
-2.373,0.511,-0.330,125.427,340.271,356.934
-2.321,0.919,-0.660,120.789,342.285,367.615
-2.247,0.891,-0.807,103.516,307.007,339.233
-2.129,0.852,-0.710,116.882,278.625,331.360
-2.148,0.818,-0.510,178.955,244.263,308.655
-2.202,0.566,-0.380,206.482,236.328,295.898
-2.607,0.428,-0.176,262.268,242.004,312.134
-2.791,0.742,-0.288,325.500,267.639,345.398
-2.732,1.565,-0.741,367.432,258.667,355.164
-2.360,1.990,-0.740,422.302,179.993,348.083
-2.123,1.981,-0.598,435.913,129.395,274.841
-1.813,1.935,-0.304,414.307,42.114,147.034
-1.758,-0.021,-0.290,358.948,19.531,5.920
-1.662,-0.453,-0.430,338.501,4.333,22.339
-1.682,0.344,0.006,319.580,-96.619,119.873
-1.547,0.840,0.719,331.787,-150.391,105.652
-1.474,0.851,0.838,340.881,-140.381,76.294
-1.396,0.760,0.824,362.427,-116.882,25.085
-1.375,0.839,0.669,376.648,-123.840,-14.221
-1.297,0.932,0.584,393.921,-125.244,-41.748
-1.243,1.107,0.987,400.574,-148.010,-105.164
-1.197,1.198,1.096,407.898,-129.822,-185.791
-1.207,1.256,1.077,417.236,-114.441,-230.408
-1.301,1.036,0.678,420.532,-97.412,-320.374
-1.373,0.857,0.685,407.288,-112.915,-362.549
-1.564,0.518,1.173,382.935,-153.137,-432.068
-1.602,0.506,1.592,383.301,-137.268,-473.999
-1.575,0.577,1.722,359.253,-65.979,-501.038
-1.603,1.077,1.686,346.863,-16.846,-513.550
-2.201,1.290,1.467,355.347,61.096,-574.646
-3.011,1.313,0.993,362.366,175.354,-632.202
-3.378,1.238,0.432,351.868,237.732,-666.565
-3.918,0.501,-0.751,254.578,283.936,-748.108
-3.524,-1.033,-1.653,143.311,145.264,-811.707
-3.155,-1.760,-1.453,100.098,4.395,-833.313
-2.669,-3.176,0.398,61.829,-237.427,-877.563
-1.277,-4.000,1.118,56.580,-190.857,-536.865
-0.835,-4.000,1.181,86.731,-159.363,-334.167
-0.354,-2.308,1.764,146.484,-151.611,66.528
-0.146,0.292,2.259,128.174,-112.732,252.258
-0.032,0.940,2.298,87.646,-73.181,292.358
0.003,1.575,1.953,23.682,22.217,121.826
-0.041,1.159,1.481,-30.212,104.004,-26.428
-0.104,0.150,0.469,-38.513,109.558,-49.866
-0.088,-0.140,0.267,-24.353,41.199,-29.724
-0.107,0.019,0.591,-1.160,-19.348,-1.709
-0.087,0.085,0.753,-0.732,-31.677,2.502
-0.055,0.067,1.085,-11.780,-40.344,2.991
-0.039,0.073,1.231,-24.231,-24.780,9.949
-0.064,0.180,1.074,-21.545,-2.808,17.151
-0.074,0.177,0.942,-21.301,3.784,14.832
-0.092,0.102,0.865,-19.104,-0.549,8.545
-0.110,0.156,0.875,-7.935,-6.592,9.155
-0.118,0.125,1.022,-3.113,-11.902,2.136
-0.111,0.074,1.073,0.244,-4.700,-2.014
-0.105,0.039,1.020,0.977,1.038,-0.427
-0.096,0.159,0.931,10.437,3.479,2.808
-0.093,0.166,0.916,13.672,2.380,-2.625
-0.088,0.119,0.894,12.634,2.625,-6.165
-0.080,0.088,0.905,12.512,-1.587,-5.798
-0.104,0.115,0.925,10.925,-3.662,-4.089
-0.100,0.149,0.938,5.188,-5.920,-6.470
-0.110,0.031,1.031,1.770,-9.277,-12.756
-0.106,0.022,0.994,3.967,-5.554,-10.864
-0.108,0.014,0.955,1.282,-4.578,-5.615
-0.122,0.040,0.921,-5.737,-3.479,-0.061
-0.107,0.102,0.955,-7.874,-8.118,3.174
-0.109,0.042,1.084,-7.751,-12.085,-0.183
-0.099,0.017,1.049,-4.944,-3.601,2.014
-0.102,0.091,0.962,-1.160,0.183,6.470
-0.110,0.168,0.880,-1.831,-2.869,5.493
-0.109,0.115,0.971,-5.371,-9.521,-1.038
-0.105,0.074,1.055,-3.723,-8.423,-2.319
-0.107,0.085,1.041,-0.977,-2.197,-1.282
-0.115,0.103,0.959,3.967,1.282,-2.014
-0.117,0.107,0.893,4.028,2.441,-0.977

-0.214,-0.345,2.423,100.769,23.193,-58.960
-0.249,-0.362,2.383,114.746,47.363,-46.814
-0.368,-0.371,2.293,148.499,82.947,-45.837
-0.485,-0.450,2.373,181.030,103.943,-44.922
-0.670,-0.592,2.345,217.957,135.986,-41.321
-0.747,-0.729,2.139,229.065,174.744,-29.785
-0.926,-0.895,1.769,227.173,179.443,-18.250
-1.117,-1.151,2.033,202.698,167.908,4.028
-1.377,-1.333,2.626,145.996,190.552,59.753
-1.564,-1.328,2.782,77.393,279.297,123.962
-2.001,-1.182,2.683,39.368,332.214,156.189
-2.369,-0.796,2.324,-16.846,433.777,209.106
-2.521,-0.760,1.913,-21.606,481.873,219.604
-2.668,-0.821,1.094,-40.833,538.513,236.633
-2.720,-0.695,0.658,-79.956,552.307,261.963
-2.691,-0.544,0.552,-68.970,531.616,290.466
-2.672,-0.227,0.496,-41.687,538.086,295.410
-2.728,-0.378,0.317,-1.465,547.668,292.603
-2.766,-0.457,0.219,30.579,532.593,323.975
-2.832,0.033,-0.004,80.078,546.753,346.069
-2.678,0.562,-0.185,134.460,521.667,362.488
-2.584,0.767,-0.170,144.165,499.512,356.812
-2.452,0.792,-0.120,159.973,464.172,322.144
-2.456,0.695,-0.347,206.909,441.711,302.429
-2.393,0.489,-0.340,190.918,420.898,309.692
-2.384,0.754,-0.099,173.279,382.690,332.153
-2.463,0.874,-0.146,162.964,392.456,335.449
-2.451,1.077,-0.769,155.823,398.621,328.430
-2.488,1.043,-1.173,169.373,314.209,283.142
-2.434,0.901,-0.976,163.757,256.958,255.554
-2.494,1.177,-0.736,198.120,204.468,240.723
-2.302,1.682,-1.108,248.962,180.969,219.421
-2.071,1.881,-1.120,252.075,149.170,185.120
-1.719,1.794,-0.750,267.395,58.167,86.304
-1.727,1.199,-0.583,261.963,27.222,25.879
-1.635,-0.150,-0.729,252.930,-2.563,-15.320
-1.788,-0.518,-0.028,268.677,-77.148,32.532
-1.622,-0.712,0.281,293.762,-93.628,53.833
-1.655,-0.020,0.439,328.186,-97.534,162.598
-1.505,1.352,0.653,363.708,-120.422,224.854
-1.334,1.876,0.605,368.530,-121.948,199.524
-1.336,1.924,0.591,375.305,-129.883,156.372
-1.323,1.992,0.108,377.380,-141.907,-0.366
-1.317,1.322,0.184,388.123,-180.603,-92.224
-1.338,0.545,0.823,392.395,-244.873,-169.556
-1.118,0.689,1.230,410.217,-242.920,-187.622
-1.136,0.882,1.445,372.009,-215.698,-199.524
-1.252,1.478,1.049,369.812,-184.875,-219.421
-1.459,1.265,0.638,351.318,-187.561,-311.035
-1.562,0.949,0.684,348.938,-210.815,-358.643
-1.657,0.508,1.071,362.061,-248.901,-418.152
-1.665,0.418,1.184,377.319,-239.990,-448.730
-1.622,0.376,1.145,377.075,-230.896,-464.233
-1.545,0.426,1.281,349.609,-226.257,-497.192
-1.559,0.658,1.770,325.439,-202.515,-516.602
-1.646,0.819,1.844,337.708,-159.058,-542.053
-1.934,0.780,1.166,365.784,-25.330,-567.932
-2.208,0.396,0.055,391.296,54.138,-607.910
-2.133,-0.037,-0.328,350.891,16.296,-645.508
-1.885,-1.197,-0.364,320.435,-32.898,-646.545
-1.403,-1.948,0.189,262.695,-99.365,-589.294
-1.108,-2.365,0.357,196.411,-85.693,-476.868
-0.914,-2.775,0.240,135.803,-76.233,-431.885
-0.448,-2.889,0.944,39.795,-138.245,-177.551
-0.193,-0.916,2.001,46.814,-129.333,49.988
-0.157,-0.018,1.916,44.373,-67.932,104.858
-0.106,0.858,1.102,23.804,28.687,113.708
-0.127,0.627,0.669,-0.854,28.198,8.484
-0.152,0.271,0.702,-9.583,10.559,-25.391
-0.134,-0.117,0.985,-23.621,-8.606,-25.330
-0.125,0.067,1.012,-10.681,-2.502,-1.465
-0.131,0.097,0.972,-3.845,-0.732,-2.197
-0.145,-0.054,0.947,-1.587,-1.709,-9.766
-0.133,-0.100,0.928,-5.005,-0.183,2.136
-0.121,-0.024,0.941,-10.864,-1.404,19.165
-0.116,0.129,0.986,-13.550,-0.305,21.423
-0.109,0.228,0.944,-11.536,3.967,18.616
-0.094,0.216,0.952,-7.141,2.441,14.587
-0.098,0.182,1.021,1.709,-0.610,7.812
-0.112,0.209,0.911,11.658,5.066,4.089
-0.124,0.171,0.908,13.733,2.625,0.061
-0.126,0.070,1.017,12.939,-1.831,-3.906
-0.112,0.038,1.009,10.437,4.578,-1.221
-0.119,0.052,0.960,10.681,8.301,2.258
-0.126,0.126,0.870,12.329,6.287,2.991
-0.126,0.130,0.959,9.399,-3.174,-0.977
-0.122,0.087,1.002,6.226,-3.662,-5.066
-0.114,0.021,0.990,4.028,0.732,-4.456
-0.118,0.017,0.904,-0.977,3.723,0.000
-0.116,0.156,0.881,-3.601,-0.122,6.348
-0.115,0.203,0.909,-4.395,-2.808,5.676
-0.113,0.117,1.007,-5.737,-6.470,-2.380
-0.113,0.072,1.037,-4.883,-6.042,-2.075
-0.115,0.126,1.030,-2.563,-2.014,-1.526
-0.110,-0.005,1.033,-5.676,-0.549,-7.263
-0.122,-0.014,0.960,-3.235,3.723,-1.343
-0.117,0.071,0.895,-0.488,4.883,3.723
-0.114,0.157,0.927,0.671,-2.747,3.601
-0.112,0.094,0.982,3.784,-5.310,-1.587
-0.113,0.075,1.001,4.211,-5.432,-2.563

-0.356,-0.158,2.179,59.265,33.569,-70.435
-0.416,-0.159,2.215,69.946,45.410,-66.040
-0.497,-0.333,2.280,88.562,71.655,-63.904
-0.583,-0.283,2.414,120.850,98.572,-50.293
-0.645,-0.305,2.299,135.620,122.925,-47.485
-0.817,-0.543,2.069,158.142,154.663,-44.800
-1.010,-0.870,2.048,171.082,169.556,-32.166
-1.097,-1.001,2.065,172.729,177.856,-21.545
-1.325,-1.127,2.225,172.668,197.754,25.818
-1.429,-0.988,2.276,167.725,240.967,96.069
-1.672,-0.650,2.132,147.888,269.104,117.310
-1.826,-0.603,1.897,116.821,305.969,142.456
-1.875,-0.538,1.992,95.703,313.843,158.081
-2.005,-0.500,1.925,54.077,362.488,188.477
-2.076,-0.396,1.451,6.165,418.823,219.971
-2.092,-0.208,1.305,-1.160,433.105,236.633
-2.159,0.285,1.319,-17.395,450.928,251.892
-2.250,-0.167,1.489,-90.637,502.563,220.581
-2.591,-0.431,1.560,-145.264,545.715,213.684
-2.982,-0.357,0.691,-174.683,674.622,232.117
-3.043,-0.003,-0.254,-118.469,729.309,244.873
-2.591,0.736,-1.727,1.892,708.923,230.225
-1.904,0.640,-1.154,25.879,490.906,165.588
-1.778,0.534,-0.308,6.165,415.222,149.170
-1.909,0.459,0.330,5.737,439.392,132.935
-2.019,0.390,-0.921,44.373,539.978,123.291
-1.969,0.511,-1.365,60.303,517.090,127.197
-1.691,0.643,-0.554,18.616,380.920,110.474
-1.716,0.542,-0.177,21.118,360.840,95.093
-1.903,0.429,-0.763,66.528,420.166,71.777
-1.973,0.747,-1.155,112.366,394.104,73.303
-1.833,0.973,-1.405,118.774,371.826,71.716
-1.866,1.242,-1.516,131.104,300.720,43.091
-1.958,1.135,-1.532,157.532,234.253,-22.339
-2.054,0.510,-1.811,171.875,206.421,-43.579
-1.996,0.086,-1.884,194.214,128.479,-49.561
-1.907,0.188,-1.611,199.158,32.898,-19.165
-1.620,0.540,-1.049,201.294,10.986,-10.010
-1.476,0.706,-0.919,210.266,-14.587,5.188
-1.387,0.691,-1.039,207.581,-25.330,16.968
-1.361,0.703,-0.861,193.909,-76.965,55.054
-1.295,0.382,-0.941,182.068,-99.731,97.229
-1.327,0.432,-1.042,189.026,-116.699,126.465
-1.297,0.347,-0.880,228.882,-184.570,159.607
-0.992,0.362,0.180,281.189,-268.860,180.908
-0.848,0.673,0.776,312.500,-308.960,209.534
-0.867,1.369,1.204,293.396,-240.051,249.146
-0.976,1.478,-0.441,334.900,-117.737,214.294
-1.262,1.409,-1.097,333.862,-129.517,180.664
-1.526,1.027,-1.318,381.348,-306.030,101.807
-1.725,0.478,0.377,455.444,-493.347,29.602
-1.557,0.500,1.122,502.563,-534.424,5.493
-1.414,1.086,2.216,613.525,-562.073,-39.124
-1.425,1.896,1.666,641.907,-483.215,-138.794
-1.485,2.012,1.439,638.367,-462.280,-186.707
-1.660,2.446,1.232,585.388,-426.025,-365.906
-2.056,1.467,1.817,524.109,-408.691,-550.720
-2.229,1.010,1.916,499.207,-352.417,-588.745
-2.308,0.809,1.248,458.557,-196.472,-601.807
-2.524,0.409,0.136,423.462,-89.600,-617.249
-2.641,0.257,-0.340,372.009,-98.816,-628.357
-2.815,-0.775,-0.966,338.745,-141.724,-649.780
-2.584,-2.112,-0.301,220.581,-253.174,-739.136
-1.809,-4.000,1.161,117.554,-320.496,-636.841
-0.865,-3.620,2.334,168.091,-264.648,-171.570
-0.589,-2.135,2.451,216.736,-209.229,-8.606
-0.240,-0.311,2.335,120.850,-74.280,110.779
-0.073,0.477,1.941,9.827,30.151,118.286
-0.062,0.914,1.162,-32.654,95.459,92.712
-0.081,0.917,0.759,-36.133,105.347,68.054
-0.095,0.747,0.201,-24.841,75.195,15.320
-0.096,0.387,0.662,-15.808,-6.592,-23.071
-0.119,0.240,0.889,-13.550,-19.043,-28.015
-0.107,0.145,0.851,-14.221,-0.183,-15.015
-0.091,0.269,0.779,-29.297,-1.099,-1.099
-0.086,0.297,0.833,-33.447,-14.221,-0.305
-0.079,0.240,1.023,-28.198,-18.005,-1.160
-0.112,0.222,1.053,-15.015,-11.108,-0.305
-0.119,0.217,0.997,-11.902,-5.920,-2.319
-0.131,0.096,1.044,-14.465,-7.690,-4.089
-0.123,0.139,1.081,-15.930,0.000,2.319
-0.133,0.185,1.006,-11.475,9.766,5.310
-0.139,0.211,0.882,-8.667,14.893,7.751
-0.095,0.315,0.842,0.488,5.005,7.141
-0.090,0.309,1.074,7.996,-5.310,-0.549
-0.086,0.305,1.086,14.526,-1.038,-2.625
-0.097,0.319,0.966,26.733,7.568,-6.287
-0.118,0.252,0.851,22.888,10.620,-11.902
-0.142,0.196,0.834,19.592,8.423,-13.428
-0.124,0.097,0.819,14.771,2.319,-12.268
-0.120,0.068,0.909,10.864,-3.906,-9.521
-0.113,0.088,1.036,9.705,-5.493,-1.953
-0.098,0.131,0.988,6.409,0.732,2.991
-0.092,0.145,0.992,3.784,0.183,4.395
-0.104,0.156,0.982,-3.784,2.197,6.531
-0.103,0.187,0.943,-7.568,4.272,10.498
-0.097,0.258,0.896,-8.240,2.502,10.315
-0.099,0.242,0.894,-8.240,-0.488,5.859
-0.104,0.226,0.897,-4.761,-3.052,4.089
-0.101,0.221,0.921,-3.845,-4.639,4.089

-0.184,0.191,2.190,28.625,-39.124,-42.725
-0.236,0.083,2.320,40.833,-30.579,-46.021
-0.375,-0.118,2.494,66.223,-3.845,-48.706
-0.498,-0.451,2.479,86.060,34.302,-50.659
-0.562,-0.563,2.512,91.858,53.833,-43.823
-0.665,-0.441,2.521,100.891,102.722,-15.930
-0.787,-0.243,2.450,109.863,146.729,-0.916
-0.851,-0.194,2.545,118.103,161.560,0.427
-1.078,-0.217,2.674,130.127,210.266,2.563
-1.362,-0.392,2.396,120.239,282.104,9.460
-1.482,-0.419,2.202,104.858,312.073,18.494
-1.712,-0.508,2.040,58.167,349.854,40.771
-1.835,-0.329,2.046,18.433,376.404,66.223
-1.897,-0.138,2.048,21.851,387.878,76.111
-2.024,-0.094,2.035,15.625,424.377,75.562
-2.082,-0.172,1.876,11.719,453.064,75.256
-2.214,-0.162,1.572,10.498,496.094,94.543
-2.233,0.050,1.726,-3.235,517.761,119.995
-2.411,0.207,1.806,-3.540,540.710,127.197
-2.721,-0.048,1.211,13.245,628.540,117.554
-2.895,-0.319,0.313,-1.526,692.444,128.784
-2.755,-0.198,0.124,-18.860,688.416,145.630
-2.651,0.346,0.058,-28.076,656.921,164.551
-2.575,0.430,-0.050,-4.456,640.808,142.090
-2.519,0.458,-0.466,19.470,633.789,127.502
-2.417,0.585,-0.771,57.861,572.266,108.337
-2.266,0.542,-0.768,71.533,529.724,92.896
-2.209,0.437,-0.624,80.872,462.646,68.359
-2.107,0.468,-0.955,112.854,431.885,49.255
-2.035,0.545,-1.099,133.667,405.579,42.053
-1.843,0.602,-0.979,170.471,313.416,20.081
-1.905,0.521,-0.500,189.087,249.023,10.132
-1.940,0.597,-0.548,195.007,251.953,15.991
-2.173,0.914,-1.033,194.214,261.780,34.485
-2.346,1.027,-1.824,193.665,255.554,37.476
-2.412,1.119,-2.376,189.392,231.201,32.349
-2.282,0.917,-2.891,201.050,69.824,-13.245
-2.149,0.695,-2.481,204.041,-132.080,-38.513
-1.714,0.439,-1.108,196.045,-182.739,-27.710
-1.365,0.494,-0.532,164.490,-192.810,28.809
-1.227,0.423,-0.496,145.874,-181.335,70.679
-1.162,0.243,-0.431,133.789,-186.279,90.942
-1.171,-0.028,-0.302,156.494,-200.684,119.324
-1.305,-0.450,-0.043,239.380,-223.511,165.649
-1.395,-0.252,0.080,278.503,-228.394,208.496
-1.127,0.541,0.708,366.333,-273.621,271.179
-1.239,1.771,1.250,422.729,-298.828,335.327
-1.266,1.934,1.074,408.630,-252.136,326.904
-1.305,2.706,-0.267,413.147,-167.603,277.527
-1.573,2.248,-1.248,465.637,-254.150,38.696
-1.708,1.872,-0.932,462.280,-363.831,-51.758
-2.050,1.485,0.402,485.107,-533.325,-178.284
-2.273,0.718,0.926,586.731,-574.646,-289.856
-2.194,0.574,0.835,588.379,-633.667,-327.881
-2.206,1.189,1.914,529.846,-699.585,-314.514
-2.000,1.533,3.776,485.229,-641.418,-327.820
-1.972,2.389,3.443,486.145,-292.542,-378.418
-2.364,2.560,2.264,515.137,-104.919,-443.848
-3.249,1.726,-0.221,495.728,102.234,-644.897
-3.735,-0.278,-1.627,371.094,55.176,-822.693
-3.716,-1.510,-2.018,323.853,-14.832,-871.155
-3.630,-2.996,-1.668,200.439,-227.295,-957.642
-2.347,-4.000,0.650,99.487,-459.839,-624.573
-1.183,-3.975,3.286,161.499,-454.407,-164.856
-0.723,-2.494,3.665,186.401,-326.294,120.789
-0.240,-0.225,2.687,166.748,-58.289,174.683
-0.072,0.713,1.513,26.062,73.914,182.068
-0.047,0.860,1.199,-30.273,90.576,133.667
-0.048,0.815,0.977,-89.722,82.031,64.758
-0.114,0.284,0.739,-68.420,67.688,-1.953
-0.125,0.073,0.554,-33.630,41.809,-13.916
-0.131,-0.032,0.557,-28.870,26.733,-5.493
-0.083,0.200,0.654,-45.410,8.423,15.625
-0.056,0.292,0.784,-57.312,-3.174,22.949
-0.024,0.373,0.935,-54.138,-3.418,23.560
-0.036,0.455,0.904,-41.382,0.549,15.747
-0.038,0.393,0.920,-33.630,-2.380,-1.587
-0.074,0.227,0.983,-28.809,-0.916,-5.371
-0.080,0.104,0.920,-19.775,6.653,-5.005
-0.094,0.038,0.933,-16.968,5.554,-3.662
-0.087,0.099,0.943,-7.019,5.249,6.653
-0.062,0.282,0.988,4.578,4.578,13.428
-0.060,0.294,0.966,9.460,6.592,10.071
-0.039,0.299,0.896,19.348,6.775,4.517
-0.032,0.322,0.917,28.503,0.977,3.601
-0.024,0.403,0.921,29.968,1.282,1.709
-0.048,0.366,0.921,25.513,0.610,-8.850
-0.064,0.249,0.891,23.315,1.648,-30.823
-0.075,0.027,0.937,14.282,-1.282,-15.991
-0.054,0.055,0.999,6.592,-0.793,-1.831
-0.046,0.131,1.012,4.578,-0.305,6.165
-0.044,0.202,1.004,1.587,2.197,6.226
-0.046,0.271,0.827,-2.991,7.690,8.362
-0.050,0.320,0.824,-5.066,2.808,9.277
-0.046,0.271,0.982,-12.695,-6.653,2.441
-0.046,0.221,0.972,-8.972,-1.038,-0.366
-0.053,0.228,0.914,-3.784,-0.061,-0.610
-0.063,0.152,0.937,-2.380,-2.563,-1.892
-0.074,0.097,0.944,-1.404,-0.427,0.916
-0.057,0.157,0.885,4.089,0.061,10.193

-0.150,0.083,2.189,64.819,-31.494,-71.899
-0.208,-0.198,2.230,65.735,-20.020,-82.031
-0.299,-0.555,2.351,58.167,4.211,-73.242
-0.393,-0.562,2.441,57.434,35.522,-42.847
-0.438,-0.520,2.387,65.613,53.650,-29.602
-0.536,-0.392,2.439,88.013,73.608,-10.803
-0.702,-0.379,2.545,116.760,101.379,1.038
-0.781,-0.430,2.500,138.733,120.605,8.545
-0.977,-0.356,2.532,165.955,150.574,31.616
-1.224,-0.319,2.646,159.424,191.895,49.744
-1.373,-0.389,2.681,143.372,218.201,56.213
-1.741,-0.358,2.817,112.488,276.489,85.999
-2.115,-0.068,2.575,80.933,362.122,117.065
-2.266,-0.045,2.441,69.336,398.682,122.742
-2.532,0.179,2.374,60.242,458.069,138.916
-2.675,0.253,2.298,50.659,540.039,140.137
-2.942,0.043,1.568,43.152,588.684,136.353
-2.976,-0.275,0.650,5.249,637.512,143.738
-2.904,-0.262,0.500,-10.437,614.075,180.725
-2.844,0.169,0.583,-18.127,610.474,195.740
-2.854,0.368,0.304,-17.944,636.841,187.073
-2.796,0.455,0.174,3.967,638.550,180.054
-2.916,0.573,-0.081,1.099,641.724,170.349
-2.829,0.356,-0.606,14.954,644.226,140.442
-2.741,0.346,-0.902,36.621,630.554,134.888
-2.371,0.523,-1.300,71.533,546.814,121.338
-2.131,0.532,-0.953,98.328,420.593,91.858
-1.885,0.537,-0.649,111.572,375.732,81.604
-1.681,0.586,-0.182,120.667,335.083,67.871
-1.778,0.540,-0.120,139.343,332.886,62.073
-1.949,0.341,-0.533,153.137,361.450,51.147
-2.038,0.394,-0.821,181.458,340.271,64.331
-2.197,0.484,-0.824,184.265,320.862,70.801
-2.432,0.610,-1.281,207.947,310.608,71.533
-2.561,0.677,-2.265,234.680,269.470,64.453
-2.642,0.653,-2.649,251.038,206.665,55.847
-2.405,0.752,-2.677,280.640,18.677,42.603
-2.225,0.801,-2.154,289.978,-83.557,34.790
-1.865,0.853,-1.014,287.781,-209.961,22.156
-1.581,0.545,-0.631,280.273,-235.535,7.263
-1.525,0.358,-0.485,265.320,-257.324,20.935
-1.369,-0.083,-0.269,267.761,-256.592,40.283
-1.475,0.220,-0.353,274.292,-264.832,95.947
-1.612,0.047,-0.566,351.562,-297.607,122.253
-1.688,0.114,-0.390,385.925,-381.958,151.367
-1.272,1.078,0.762,424.072,-442.322,171.143
-1.339,2.006,2.057,499.146,-482.544,212.952
-1.285,4.000,0.688,483.643,-268.494,116.394
-1.515,3.317,-0.437,466.431,-218.506,-92.468
-2.030,1.152,-0.938,424.011,-354.858,-331.055
-2.391,0.383,0.171,447.815,-526.794,-375.549
-2.475,0.689,0.901,448.486,-583.069,-371.826
-2.273,1.306,2.451,437.988,-641.357,-403.259
-2.167,1.543,3.518,423.096,-526.855,-437.927
-2.412,1.917,3.326,410.950,-370.178,-480.835
-2.780,0.774,1.290,360.962,-119.202,-609.253
-2.757,-0.242,0.531,285.400,-126.831,-649.231
-2.886,-0.633,0.535,292.297,-160.034,-646.423
-2.689,-1.424,0.031,276.245,-138.977,-663.757
-2.469,-2.420,-0.381,274.048,-158.691,-715.576
-2.340,-3.438,-0.299,250.244,-197.754,-739.380
-1.295,-4.000,0.898,183.777,-317.078,-370.178
-0.630,-2.831,2.946,161.743,-310.730,-31.067
-0.376,-1.760,3.317,121.460,-91.064,144.348
-0.161,0.050,2.407,47.607,24.475,192.017
-0.109,1.054,1.004,-25.879,141.541,217.896
-0.104,1.218,0.286,-49.805,119.141,78.125
-0.075,0.790,0.183,-54.077,85.327,18.738
-0.140,0.040,0.256,-36.987,29.480,-19.104
-0.088,0.059,0.300,-27.649,-3.601,13.855
-0.055,0.373,0.593,-38.940,-16.663,19.592
-0.007,0.425,0.881,-53.223,-27.710,6.775
-0.005,0.232,1.095,-41.626,-29.907,-10.010
-0.015,0.084,1.179,-36.377,-26.855,-14.709
-0.075,-0.043,0.980,-33.386,4.395,-6.226
-0.072,0.091,0.707,-32.471,10.498,10.437
-0.024,0.125,0.998,-31.982,-14.404,11.169
-0.004,0.189,1.152,-23.071,-18.372,12.451
-0.020,0.288,1.112,1.953,-3.906,9.460
0.010,0.353,1.056,14.465,-4.211,0.793
-0.000,0.337,1.153,20.508,-8.911,-4.211
-0.032,0.235,1.037,22.644,6.714,-13.550
-0.038,0.162,0.851,22.827,8.850,-14.160
-0.056,0.134,0.863,19.287,-2.686,-11.841
-0.045,0.119,0.942,20.874,-7.263,-10.254
-0.049,0.066,1.018,19.409,-9.033,-9.949
-0.043,0.015,1.025,10.437,-3.296,-5.554
-0.048,0.043,0.997,7.690,0.000,0.488
-0.029,0.176,0.951,-2.930,2.625,6.592
-0.028,0.168,0.994,-11.353,-1.892,1.587
-0.019,0.141,1.059,-11.597,-0.916,0.732
-0.057,0.143,0.938,-11.475,8.118,0.427
-0.047,0.168,0.830,-10.132,10.010,1.099
-0.052,0.210,0.871,-8.850,-2.625,-0.427
-0.036,0.152,0.935,-8.850,-4.517,-5.127
-0.034,0.131,0.938,-5.859,-3.784,-5.066
-0.042,0.133,0.900,0.305,-2.258,-3.174
-0.033,0.141,0.908,7.751,-5.066,-1.770
-0.035,0.134,0.935,7.935,-6.287,-1.038
-0.036,0.201,0.904,7.568,-3.052,0.244

-0.264,-0.233,2.548,99.182,23.682,-62.012
-0.331,-0.362,2.626,117.188,40.833,-62.622
-0.510,-0.501,2.687,167.358,81.299,-46.936
-0.722,-0.519,2.475,198.669,131.714,-23.010
-0.867,-0.554,2.411,200.439,149.048,-12.695
-1.156,-0.725,2.669,188.171,159.790,4.517
-1.521,-0.882,3.315,178.040,178.284,31.738
-1.729,-0.901,3.497,163.452,218.933,56.824
-2.201,-0.565,3.124,130.859,341.003,124.146
-2.384,-0.357,2.701,105.347,398.865,164.612
-2.578,0.063,2.245,60.547,463.867,180.115
-2.655,0.111,1.878,26.123,524.841,174.866
-2.847,-0.015,1.516,20.508,566.284,169.617
-2.935,-0.155,0.730,4.211,626.404,180.054
-2.907,-0.047,0.501,4.333,621.948,203.064
-2.912,-0.010,0.390,-16.418,622.681,199.402
-2.938,0.018,0.129,-25.146,638.062,190.369
-2.840,0.208,-0.082,-3.723,632.629,190.369
-2.796,0.218,-0.271,6.409,631.653,184.570
-2.638,0.309,-0.515,28.381,597.290,171.692
-2.396,0.265,-0.499,35.400,545.471,153.015
-2.417,0.377,-0.429,39.429,522.583,151.611
-2.342,0.444,-0.521,57.861,502.747,138.794
-2.401,0.493,-0.701,83.801,480.286,127.014
-2.359,0.560,-0.772,84.778,465.515,120.056
-2.316,0.596,-1.025,122.742,431.519,96.313
-2.287,0.617,-1.259,158.997,371.826,65.002
-2.225,0.613,-1.389,180.298,339.172,47.302
-2.089,0.674,-1.748,215.637,254.211,13.000
-1.963,0.243,-1.599,228.027,108.459,-21.851
-1.884,0.048,-1.261,232.971,46.143,-19.226
-1.767,-0.170,-0.912,271.606,-17.212,11.169
-1.738,-0.280,-0.467,284.912,-60.120,68.604
-1.859,0.292,-0.613,323.547,-47.302,164.001
-1.897,0.727,-0.948,339.233,-41.809,205.017
-1.727,1.311,-1.489,360.657,-91.309,225.098
-1.759,1.439,-1.298,399.475,-224.304,156.372
-1.519,0.821,-0.462,417.603,-263.794,111.938
-1.714,0.456,0.077,444.580,-317.322,96.130
-1.734,0.100,0.039,470.154,-318.237,135.803
-1.935,0.512,0.009,480.225,-340.942,158.386
-2.063,1.208,0.284,545.532,-404.907,134.460
-2.016,1.337,0.441,578.308,-445.679,38.879
-1.758,1.605,1.318,549.805,-570.435,14.893
-1.776,2.043,2.865,539.429,-563.599,11.963
-1.607,3.119,2.653,543.762,-432.922,13.794
-2.402,3.356,0.757,585.937,-197.388,-281.067
-2.911,1.785,-0.165,473.938,-177.795,-528.625
-3.090,1.270,-0.028,414.368,-250.793,-583.191
-3.600,1.107,1.025,376.648,-374.451,-634.888
-3.780,0.292,1.699,372.437,-342.285,-711.487
-3.846,-0.772,0.648,404.968,-179.749,-783.936
-3.726,-1.380,-0.218,396.057,-115.906,-830.139
-3.702,-3.343,-0.811,333.618,-192.444,-1025.757
-2.198,-4.000,0.756,142.090,-386.658,-637.939
-1.128,-4.000,3.002,182.678,-394.348,-68.909
-0.733,-2.742,3.606,182.495,-296.997,151.855
-0.383,0.406,3.232,148.560,-50.354,380.554
-0.521,1.895,1.424,35.583,155.212,428.467
-0.298,2.783,0.453,-30.884,199.951,373.413
-0.336,2.042,-0.326,-53.528,114.197,15.198
-0.298,0.800,-0.027,-91.370,-25.146,-160.034
-0.223,-0.792,0.935,-80.505,-52.246,-163.086
-0.163,-0.978,1.183,-39.551,-20.264,-85.571
-0.192,-0.179,0.786,-23.560,23.682,33.569
-0.091,0.559,0.541,-41.504,18.433,67.383
-0.069,0.706,0.665,-43.945,-4.517,56.702
-0.077,0.606,1.062,-35.889,-27.588,12.512
-0.075,0.284,1.087,-17.883,-5.310,-16.174
-0.125,0.147,0.928,-9.705,9.460,-19.043
-0.114,0.003,0.653,-12.817,15.808,-9.583
-0.097,0.203,0.872,-8.606,-8.362,10.559
-0.079,0.319,0.996,2.441,-12.878,12.146
-0.068,0.410,1.065,17.883,-4.333,7.324
-0.042,0.476,0.976,26.062,4.272,0.732
-0.031,0.485,0.993,25.879,2.197,-3.174
-0.062,0.451,0.941,23.315,5.615,-12.390
-0.063,0.404,0.885,21.423,7.507,-16.479
-0.077,0.210,0.927,15.747,-0.549,-23.376
-0.075,0.048,0.993,6.287,-1.953,-18.860
-0.075,0.044,0.999,4.089,2.075,-3.662
-0.079,0.156,0.926,1.770,4.211,2.380
-0.069,0.337,0.874,-0.732,1.709,9.216
-0.062,0.398,0.902,-1.953,-1.831,8.179
-0.066,0.398,0.975,-5.981,-4.517,-0.671
-0.062,0.289,1.012,-5.981,-2.014,-8.423
-0.076,0.270,0.987,0.671,5.371,-8.667
-0.090,0.208,0.856,0.671,7.751,-9.338
-0.087,0.141,0.853,-2.563,2.563,-7.751
-0.077,0.212,0.932,6.287,-1.404,-0.916
-0.068,0.255,0.946,11.597,-1.099,0.000
-0.066,0.308,0.965,16.296,-0.488,-2.136
-0.059,0.266,0.959,25.513,0.122,-5.554
-0.073,0.263,0.941,27.771,0.671,-6.653
-0.075,0.213,0.852,27.466,3.296,-10.071
-0.064,0.149,0.852,33.081,-2.197,-7.629
-0.060,0.152,0.909,35.522,-7.141,-3.662
-0.041,0.140,1.047,37.231,-11.108,1.282
-0.050,0.203,1.052,46.997,-3.418,9.766
-0.057,0.302,0.981,44.739,2.441,11.902

-0.205,-0.289,2.454,59.998,34.363,-72.754
-0.268,-0.388,2.490,82.275,85.266,-67.566
-0.375,-0.524,2.430,93.567,105.591,-60.364
-0.556,-0.539,2.315,118.835,143.066,-38.574
-0.636,-0.677,2.113,117.920,186.157,-18.982
-0.793,-0.458,2.191,116.577,212.402,19.409
-0.885,-0.297,2.309,109.985,231.506,36.926
-1.155,-0.389,2.748,92.163,247.681,29.785
-1.446,-0.946,2.730,88.074,310.120,28.870
-1.636,-1.032,2.198,100.769,369.934,79.712
-1.742,-0.578,1.912,118.958,384.949,149.353
-1.755,-0.297,1.918,105.469,401.428,185.547
-1.885,-0.214,1.958,74.402,422.668,188.293
-2.173,-0.045,2.053,-2.686,487.732,201.599
-2.403,-0.176,1.082,-11.536,593.201,198.364
-2.497,-0.284,0.387,-7.324,617.493,215.027
-2.517,-0.062,0.470,-66.406,602.905,228.455
-2.564,-0.006,0.490,-54.993,605.835,227.844
-2.682,-0.140,0.113,-63.904,635.986,220.337
-2.726,0.101,-0.443,-53.955,638.672,219.116
-2.510,0.451,-0.895,-24.658,580.139,202.332
-2.242,0.301,-0.770,-13.672,490.356,160.645
-2.134,0.388,-0.694,-7.690,442.871,142.822
-2.040,0.491,-0.803,6.470,429.687,134.338
-1.848,0.728,-0.967,54.260,384.827,105.774
-1.718,0.933,-0.820,91.797,317.017,59.937
-1.772,0.629,-0.724,133.118,269.653,-4.395
-1.931,-0.299,-0.794,140.869,247.986,-44.800
-2.083,-0.626,-1.182,144.531,240.479,-0.183
-2.322,-0.208,-1.515,132.751,235.779,79.041
-2.268,0.901,-2.107,136.475,172.180,98.083
-1.963,0.998,-2.246,198.608,31.372,27.039
-1.608,-0.115,-1.250,240.479,-134.583,-54.016
-1.244,-0.695,-0.043,243.652,-210.510,-15.991
-1.149,-0.657,0.378,245.911,-209.045,94.910
-1.185,-0.210,0.647,235.962,-138.062,148.682
-1.444,0.637,-0.318,264.771,-43.213,213.684
-1.583,0.982,-1.181,345.947,-78.247,180.847
-1.642,1.046,-1.124,408.997,-226.990,124.939
-1.592,0.966,-0.173,423.279,-282.654,115.479
-1.518,1.402,0.193,402.771,-309.021,137.878
-1.460,1.510,0.138,391.724,-302.979,100.342
-1.516,1.070,-0.022,383.728,-308.655,79.102
-1.646,0.958,-0.209,396.362,-344.055,59.326
-1.785,0.927,0.033,411.255,-392.334,40.283
-2.030,0.836,0.596,492.676,-470.337,-15.320
-1.803,1.189,1.456,548.401,-552.917,-69.214
-1.808,1.668,1.993,595.093,-572.815,-102.905
-2.003,3.073,2.291,602.295,-493.225,-164.490
-2.395,2.860,1.607,627.869,-316.650,-408.508
-2.724,2.738,1.131,598.938,-239.929,-612.793
-3.695,2.226,0.514,611.572,-180.603,-718.262
-4.000,0.767,-0.044,587.708,-120.544,-928.406
-4.000,-0.404,-0.700,536.987,-77.820,-1015.503
-4.000,-2.155,-2.173,339.539,-75.195,-1138.367
-4.000,-4.000,-1.209,147.217,-366.760,-1181.519
-3.773,-4.000,0.748,52.551,-530.518,-875.122
-1.630,-4.000,4.000,71.045,-514.526,-80.872
-0.773,-0.179,3.630,110.168,-88.745,491.699
-0.433,1.134,2.637,44.739,46.692,633.789
-0.295,4.000,0.795,-61.523,167.053,533.875
-0.267,3.303,-0.322,-33.447,126.648,20.813
-0.398,1.388,-0.163,-29.419,53.467,-248.413
-0.366,-1.097,0.453,-12.512,-56.213,-264.160
-0.276,-1.657,1.263,-0.061,-81.604,-138.550
-0.203,-0.632,1.385,-3.906,-25.818,24.475
-0.136,-0.131,1.184,-7.507,0.854,57.373
-0.070,0.425,1.024,-19.287,13.916,70.313
-0.039,0.560,0.989,-29.175,17.822,56.030
-0.060,0.507,0.906,-32.166,21.851,39.001
-0.102,0.342,0.895,-27.771,12.329,10.925
-0.115,-0.009,0.906,-28.625,9.399,-5.554
-0.097,-0.057,0.940,-25.879,6.897,-0.122
-0.118,0.146,0.944,-14.465,4.272,18.616
-0.082,0.250,0.957,-0.061,-3.967,19.531
-0.052,0.390,1.128,11.169,-7.812,14.343
-0.057,0.368,1.044,23.621,3.967,-4.700
-0.110,0.208,0.833,27.649,10.559,-19.775
-0.130,0.180,0.744,26.855,9.460,-20.813
-0.140,0.082,0.855,19.470,-4.822,-21.484
-0.125,-0.099,0.985,10.071,-5.127,-18.738
-0.118,-0.098,0.926,14.587,-1.099,-0.183
-0.103,0.086,0.899,22.827,-6.287,4.822
-0.093,0.160,1.027,16.663,-11.169,5.493
-0.082,0.219,1.003,4.761,-0.916,5.920
-0.088,0.239,0.965,-3.174,0.610,2.136
-0.082,0.095,1.022,-13.306,-0.061,-4.395
-0.112,0.062,0.963,-5.981,3.296,-1.892
-0.110,0.068,0.905,-3.357,3.906,-0.549
-0.123,0.079,0.891,-3.174,0.122,1.709
-0.114,0.079,0.928,-3.662,-2.014,3.906
-0.096,0.120,0.944,-0.732,-3.906,5.371
-0.087,0.209,0.970,3.723,-4.822,5.615
-0.077,0.234,0.998,4.761,-5.249,-0.122
-0.088,0.208,1.048,6.042,-4.639,-3.967
-0.094,0.114,1.010,6.592,-0.183,-9.949
-0.104,0.070,0.970,5.127,1.465,-8.911
-0.101,0.060,0.969,4.333,0.732,-7.385
-0.087,0.046,1.015,5.127,-2.441,-4.883
-0.101,0.106,0.981,9.521,-0.061,-0.549

-0.218,-0.369,2.297,36.194,-7.690,-56.030
-0.260,-0.353,2.472,36.743,0.061,-46.936
-0.318,-0.251,2.723,44.861,34.241,-32.166
-0.454,-0.221,2.779,60.242,85.876,-26.184
-0.516,-0.236,2.759,67.749,112.610,-24.414
-0.764,-0.122,2.634,75.684,167.664,-17.700
-0.922,-0.302,2.512,67.017,227.234,-31.616
-1.018,-0.477,2.479,45.959,254.211,-34.180
-1.191,-0.542,2.200,11.597,305.298,-10.742
-1.230,-0.137,2.250,56.274,313.171,32.715
-1.348,0.209,2.478,93.567,314.453,51.819
-1.630,0.426,2.314,106.873,364.319,42.725
-1.711,0.180,2.000,104.065,386.536,23.804
-1.776,-0.102,1.746,94.666,383.362,28.625
-1.792,-0.022,1.799,95.764,379.211,63.171
-1.918,0.232,1.864,87.952,401.123,76.172
-2.032,0.207,1.233,68.604,466.675,85.815
-2.004,0.195,0.998,64.087,484.253,95.398
-2.024,0.401,1.125,46.753,491.638,123.047
-2.157,0.295,1.090,8.240,555.603,109.558
-2.316,-0.238,0.576,-7.996,585.999,108.337
-2.370,-0.224,0.062,4.333,604.614,142.944
-2.439,-0.079,-0.001,8.179,595.520,158.630
-2.527,0.170,0.036,17.822,581.848,162.415
-2.647,0.196,-0.343,13.367,603.699,142.456
-2.681,0.148,-0.619,19.531,609.131,129.333
-2.454,-0.025,-1.291,49.133,576.904,108.215
-2.033,0.087,-1.235,78.735,450.012,106.995
-1.893,0.308,-0.826,109.924,352.966,106.934
-1.696,0.776,-0.541,131.836,339.417,100.159
-1.572,1.134,-0.679,164.185,310.181,71.045
-1.521,1.083,-0.774,183.533,260.986,0.427
-1.429,0.622,-0.708,221.008,229.004,-25.085
-1.485,0.225,-0.321,252.747,178.345,-35.217
-1.518,0.017,-0.157,250.793,186.401,-1.831
-1.777,0.181,-0.472,269.653,209.595,35.767
-1.999,1.082,-1.303,291.077,218.689,106.506
-2.008,1.601,-1.666,288.391,197.266,123.657
-1.820,2.289,-2.182,286.194,96.008,78.491
-1.617,1.662,-1.764,302.917,-64.880,-35.339
-1.477,1.041,-1.308,301.208,-128.113,-73.181
-1.258,0.214,-0.445,292.358,-196.289,-62.012
-1.267,0.028,-0.195,256.470,-164.856,24.658
-1.367,0.380,-0.672,255.188,-133.484,69.885
-1.516,0.562,-1.195,291.016,-145.569,123.108
-1.427,1.749,-0.605,354.858,-257.141,152.771
-1.435,2.201,-0.183,371.704,-320.312,93.933
-1.294,2.336,-0.125,367.554,-314.270,39.673
-1.393,2.014,-0.459,350.769,-330.566,-63.477
-1.543,1.706,-0.596,349.548,-388.123,-165.405
-1.854,0.875,-0.361,355.835,-435.608,-208.679
-2.019,0.581,0.355,381.653,-507.263,-248.840
-1.891,1.076,0.836,384.216,-541.565,-258.423
-1.865,1.396,1.192,383.789,-560.364,-267.090
-2.110,1.936,1.855,343.994,-529.968,-321.228
-2.270,1.508,1.422,315.002,-409.973,-445.679
-2.573,1.268,1.119,323.364,-370.056,-547.241
-2.813,0.569,0.884,320.557,-318.787,-559.021
-3.102,0.326,0.893,343.384,-305.176,-587.708
-3.226,-0.006,0.918,346.375,-256.958,-648.560
-3.263,-0.813,0.205,332.397,-218.140,-676.392
-3.112,-1.950,-0.167,310.730,-239.929,-736.694
-3.065,-4.000,0.745,272.522,-330.627,-861.145
-1.389,-4.000,2.734,155.334,-342.407,-404.297
-1.039,-4.000,3.166,176.331,-268.860,-129.517
-0.565,-1.283,2.272,107.727,-33.508,320.007
-0.295,1.231,1.147,17.761,74.219,511.597
-0.002,3.323,0.641,-56.885,59.875,465.576
-0.150,3.808,0.663,-22.278,33.936,279.236
-0.249,1.480,0.846,-19.165,3.357,-112.549
-0.241,-0.615,0.504,-29.236,12.695,-212.585
-0.204,-0.935,0.470,-25.391,-5.432,-187.744
-0.149,-0.842,1.000,-31.372,-51.880,-61.340
-0.094,-0.290,1.412,-20.020,-37.903,26.184
-0.075,0.043,1.204,-21.362,4.028,44.067
-0.074,0.168,1.027,-24.170,15.320,46.326
-0.069,0.462,0.869,-24.658,14.648,48.767
-0.072,0.503,0.953,-20.996,3.296,25.085
-0.073,0.384,0.969,-17.578,3.906,8.179
-0.083,0.149,0.827,-3.662,10.376,-6.592
-0.078,0.217,0.903,8.789,-1.465,1.465
-0.071,0.306,0.993,13.550,-5.249,2.869
-0.049,0.340,1.094,18.311,-3.174,-7.141
-0.062,0.141,1.000,16.541,7.996,-20.569
-0.067,0.091,0.909,16.541,11.963,-19.226
-0.078,0.130,0.872,18.127,5.188,-10.315
-0.088,0.135,0.906,20.264,-1.770,-10.254
-0.085,0.097,0.928,20.630,-3.662,-11.414
-0.089,-0.018,0.997,11.658,-4.944,-10.010
-0.077,-0.008,0.979,0.793,0.427,2.197
-0.066,0.098,0.980,-1.282,1.038,10.498
-0.063,0.261,1.008,-5.798,0.854,13.733
-0.057,0.272,0.985,-7.202,4.089,4.578
-0.056,0.201,0.931,-4.700,2.380,0.305
-0.049,0.111,1.024,-4.333,-2.380,-2.502
-0.062,0.148,1.016,-1.953,0.244,0.061
-0.071,0.230,0.864,1.221,7.263,0.427
-0.075,0.183,0.921,0.183,-2.014,-5.981
-0.081,0.130,0.984,4.944,-2.197,-8.789
-0.078,0.078,0.947,8.179,0.488,-6.592

-0.073,1.370,1.666,-16.541,-143.982,65.308
-0.045,1.599,1.957,-20.142,-138.428,17.883
-0.055,2.113,2.449,-21.484,-103.455,-28.442
-0.267,1.710,2.730,-17.517,-51.147,-160.095
-0.626,0.796,2.895,22.400,-1.465,-268.494
-0.751,0.243,2.896,40.222,31.372,-305.908
-0.824,-0.666,2.732,74.951,100.647,-330.994
-0.843,-0.893,2.589,106.750,157.715,-278.931
-0.818,-0.975,2.222,126.892,177.734,-232.788
-0.823,-0.775,1.867,151.489,194.885,-157.166
-0.805,-0.655,1.845,148.499,191.467,-131.836
-0.822,-0.431,2.127,145.081,181.458,-100.342
-0.995,-0.522,2.185,161.926,219.788,-88.562
-1.035,-0.692,1.855,176.697,265.442,-62.561
-1.081,-0.901,1.582,170.105,255.066,-39.429
-1.131,-1.103,2.273,89.539,219.360,15.198
-1.198,-1.005,2.650,53.284,227.112,50.659
-1.493,-0.254,2.894,42.542,301.331,129.333
-1.651,0.084,2.560,58.533,408.875,149.231
-1.779,0.189,1.731,58.533,441.956,142.090
-1.793,0.099,1.035,55.725,462.463,133.850
-1.775,0.037,0.790,49.744,459.106,133.301
-1.629,0.010,0.475,56.274,437.378,145.203
-1.540,0.151,0.545,72.876,402.100,165.344
-1.424,0.509,0.649,67.688,392.090,164.795
-1.407,0.445,0.609,39.368,408.447,138.916
-1.433,0.256,0.499,25.269,423.401,127.075
-1.462,-0.043,0.166,5.432,448.242,126.770
-1.484,0.077,0.066,-4.883,445.618,154.785
-1.500,0.220,0.149,-22.827,443.420,164.307
-1.568,0.493,0.319,-37.109,464.355,164.673
-1.683,0.635,0.128,-31.616,513.062,142.944
-1.736,0.556,-0.503,-39.185,523.682,120.483
-1.650,0.377,-0.700,-29.968,493.103,84.045
-1.600,0.373,-0.679,13.550,443.726,62.378
-1.645,0.479,-0.585,34.851,428.650,53.772
-1.723,0.286,-0.969,71.899,420.105,30.396
-1.808,0.255,-1.136,78.735,407.104,24.048
-1.879,0.339,-1.648,106.201,371.948,19.348
-1.878,0.912,-1.977,128.235,297.791,20.386
-1.810,1.063,-2.071,141.357,201.782,-23.621
-1.606,0.950,-2.056,157.227,139.954,-57.190
-1.365,0.221,-1.520,196.045,11.353,-120.789
-1.216,-0.514,-0.507,208.069,-85.449,-128.784
-1.004,-0.766,0.044,213.562,-106.995,-104.431
-1.060,-0.556,0.428,211.304,-39.673,19.592
-1.334,0.308,-0.614,223.389,59.143,135.315
-1.441,0.660,-1.063,226.135,29.114,168.579
-1.481,1.236,-1.323,254.333,-18.372,167.908
-1.427,1.356,-1.028,270.081,-114.563,145.752
-1.412,1.184,-0.825,262.756,-164.795,105.042
-1.392,0.974,-0.692,268.860,-179.932,96.191
-1.571,0.217,-0.561,308.472,-226.685,80.627
-1.533,-0.069,-0.545,336.914,-266.235,157.898
-1.715,0.766,-0.222,365.601,-301.208,200.317
-1.482,1.582,0.520,404.846,-364.929,214.417
-1.427,1.946,0.800,423.340,-386.169,207.092
-1.412,2.203,0.932,369.385,-359.680,126.770
-1.459,1.507,-0.066,363.037,-311.523,19.226
-1.661,1.274,-0.287,384.399,-341.919,-19.470
-2.035,1.157,0.366,444.214,-472.961,-94.360
-2.237,1.027,1.036,496.887,-537.048,-184.570
-2.151,1.272,1.267,485.657,-555.115,-218.384
-2.058,1.906,1.973,399.170,-593.445,-272.034
-2.465,1.853,2.693,387.512,-505.188,-386.719
-2.385,1.529,2.298,362.732,-384.094,-450.073
-2.576,1.252,1.189,405.396,-251.709,-546.326
-2.822,1.009,0.937,461.365,-210.571,-656.311
-3.158,-0.007,0.427,467.224,-175.476,-712.646
-3.031,-1.582,-0.574,430.725,-118.408,-819.275
-2.817,-3.008,-0.756,344.482,-207.520,-882.080
-2.266,-4.000,-0.139,229.248,-353.821,-533.081
-1.179,-4.000,1.745,231.934,-361.511,-300.659
-0.450,-2.113,2.922,149.658,-230.286,124.573
-0.110,0.570,2.504,50.049,-40.955,307.983
-0.041,1.284,1.892,6.653,101.013,282.593
-0.081,1.925,0.448,-37.292,117.126,211.731
-0.175,1.837,0.139,-9.094,37.720,29.602
-0.244,0.857,0.510,-9.888,-10.925,-85.022
-0.215,-0.635,0.942,-23.865,-30.212,-143.127
-0.158,-0.785,0.855,-4.944,-10.803,-80.994
-0.142,-0.625,0.858,-5.615,-11.414,-34.241
-0.123,-0.156,0.955,-11.658,-10.498,24.780
-0.059,0.220,0.821,-20.447,-3.662,49.927
-0.044,0.456,0.863,-26.001,-8.301,51.147
-0.041,0.660,1.015,-26.184,-11.475,37.109
-0.049,0.448,0.968,-14.771,0.488,-0.977
-0.039,0.271,0.955,-7.996,2.014,-12.878
-0.053,0.132,0.960,7.019,1.648,-12.695
-0.078,0.206,0.880,15.930,5.615,-3.784
-0.066,0.247,0.814,17.151,6.531,-2.014
-0.037,0.284,0.980,16.785,-7.507,-3.235
-0.036,0.247,1.031,20.935,-3.052,-6.531
-0.030,0.240,0.997,21.057,0.061,-6.226
-0.043,0.202,1.057,18.738,-3.052,-7.019
-0.052,0.214,0.854,19.287,7.141,-4.211
-0.040,0.267,0.868,15.686,1.221,-5.615
-0.054,0.115,1.092,0.671,-7.935,-10.071
-0.037,0.099,1.060,-5.005,-0.122,-6.042
-0.043,0.188,1.000,-7.446,3.662,1.831

-0.364,-0.196,2.126,92.163,114.685,-23.865
-0.413,-0.225,2.170,88.013,128.052,-19.165
-0.555,-0.254,2.466,66.467,161.438,-4.761
-0.661,-0.214,2.560,50.903,229.614,6.470
-0.912,-0.174,2.164,49.988,264.404,7.935
-1.058,-0.400,1.665,56.396,295.471,7.263
-1.078,-0.474,1.711,57.617,290.527,14.343
-1.210,-0.302,2.196,54.138,296.204,41.626
-1.409,-0.214,1.828,38.513,370.789,52.673
-1.482,-0.255,1.471,26.184,400.757,54.993
-1.453,-0.327,1.076,29.480,412.354,68.604
-1.395,-0.252,1.121,29.114,406.067,83.496
-1.407,0.307,1.612,-11.047,409.302,114.380
-1.514,0.381,1.562,-52.307,493.469,91.125
-1.670,-0.081,0.617,-45.105,527.649,78.613
-1.598,-0.254,0.021,-32.959,522.888,91.309
-1.568,0.012,0.213,-53.406,495.728,110.168
-1.557,0.026,0.182,-63.843,496.521,100.159
-1.592,-0.086,0.105,-63.965,492.554,93.445
-1.606,-0.084,0.199,-69.275,496.582,97.290
-1.787,0.126,-0.090,-48.584,513.611,97.290
-1.837,0.267,-0.703,-4.639,524.963,82.703
-1.786,0.263,-0.977,8.362,487.915,56.030
-1.616,0.250,-1.306,31.311,449.585,45.654
-1.385,0.465,-1.121,57.556,360.107,31.860
-1.297,0.499,-0.764,96.191,303.772,4.211
-1.306,0.496,-0.747,117.676,295.837,-7.507
-1.371,0.507,-1.062,138.733,289.429,-21.729
-1.370,0.493,-1.178,159.729,249.512,-29.419
-1.373,0.580,-1.209,176.147,223.022,-32.104
-1.351,0.769,-0.924,184.021,170.593,-44.556
-1.415,0.572,-0.953,199.280,159.790,-66.528
-1.610,0.125,-1.182,208.191,167.847,-58.838
-1.879,0.129,-1.727,207.397,164.551,-7.751
-1.973,0.199,-2.119,230.408,117.554,67.993
-2.018,1.324,-2.844,220.215,69.946,102.112
-1.767,1.698,-2.681,203.003,-107.666,64.575
-1.580,1.043,-1.948,199.951,-292.725,-23.437
-1.216,-0.193,-0.360,176.453,-331.909,-18.982
-0.885,-0.382,0.592,192.810,-311.584,45.654
-0.849,-0.499,0.775,260.742,-224.121,112.976
-0.925,-0.521,0.654,293.945,-187.500,157.776
-1.278,0.230,-0.091,334.717,-133.911,261.902
-1.575,0.624,-0.296,363.831,-180.969,280.273
-1.712,0.639,-0.310,402.100,-216.492,272.827
-1.770,1.016,0.229,460.632,-323.059,256.897
-1.656,1.759,1.496,502.502,-449.463,262.024
-1.587,2.311,1.989,509.033,-453.430,241.028
-1.455,3.564,1.458,500.427,-300.842,137.024
-1.532,3.566,0.307,511.292,-203.735,-93.445
-2.013,2.783,-0.605,498.657,-268.066,-210.266
-2.568,2.031,0.341,471.375,-442.749,-372.498
-2.855,1.924,0.899,459.045,-486.694,-480.530
-3.095,1.737,1.386,415.283,-472.351,-541.931
-3.456,1.076,2.094,397.400,-459.290,-661.194
-3.518,0.696,2.463,384.033,-308.594,-710.693
-3.626,0.215,1.759,407.349,-185.852,-730.469
-3.993,-0.297,-0.502,437.988,7.263,-805.847
-3.977,-2.184,-1.991,342.773,-18.005,-955.078
-3.999,-3.793,-1.929,176.941,-260.193,-921.021
-1.939,-4.000,0.374,133.545,-366.089,-541.809
-0.922,-3.506,2.542,180.603,-406.128,26.978
-0.203,-0.412,3.536,112.244,-225.586,245.972
0.006,0.569,3.274,72.144,-108.337,300.171
-0.001,1.841,1.748,-5.615,91.309,280.518
-0.031,1.890,0.909,-48.645,138.062,224.365
-0.142,1.785,0.135,-43.091,97.656,42.236
-0.224,0.059,0.425,-24.963,8.240,-129.578
-0.180,-0.579,0.662,-20.874,-18.188,-144.348
-0.151,-0.885,0.999,-12.512,-31.738,-98.572
-0.075,-0.485,1.083,-27.283,-14.709,3.296
-0.026,-0.228,1.076,-27.405,-8.972,34.546
-0.009,0.321,1.002,-31.311,-1.221,64.148
0.008,0.578,0.974,-18.005,-4.395,49.500
0.019,0.515,1.059,-11.536,-5.371,13.062
-0.040,0.211,0.963,-10.986,7.080,2.625
-0.031,0.076,0.838,-11.658,6.836,5.188
-0.026,0.068,0.954,-10.254,-3.357,16.113
-0.038,0.223,0.995,-1.282,0.732,21.057
-0.010,0.354,0.930,12.146,2.869,16.602
0.007,0.338,0.999,17.944,-2.258,8.789
-0.002,0.308,1.087,29.480,-1.465,-1.282
-0.007,0.310,0.964,28.076,7.690,-6.714
-0.008,0.245,0.981,22.522,5.310,-11.475
-0.048,0.062,0.976,14.221,9.216,-15.320
-0.041,0.053,0.765,10.620,14.771,-4.395
-0.031,0.070,0.798,8.728,5.371,0.183
0.001,0.110,1.062,7.080,-9.216,6.470
-0.027,0.252,0.926,8.484,7.385,12.756
-0.015,0.294,0.792,4.028,11.047,11.902
-0.012,0.256,0.944,-7.690,-7.324,5.066
-0.011,0.185,1.054,-8.545,-4.089,0.671
-0.008,0.157,1.003,-7.263,2.136,-0.122
-0.024,0.112,0.950,-3.662,2.625,-0.549
-0.049,0.157,0.886,-0.488,4.211,3.357
-0.043,0.195,0.805,0.366,6.226,4.578
-0.035,0.233,0.776,4.517,-2.319,2.014
-0.014,0.257,0.930,8.118,-13.489,-0.732
-0.003,0.278,1.016,8.728,-15.137,-2.136
-0.010,0.233,1.068,6.165,-7.324,-10.254

0.087,1.122,1.623,-31.250,-83.496,24.353
0.073,1.222,1.803,-23.560,-62.744,-34.241
-0.036,1.094,1.905,-7.019,-50.171,-69.458
-0.167,0.524,1.916,8.179,-36.438,-128.784
-0.287,0.003,2.254,25.696,-43.274,-151.611
-0.335,-0.224,2.503,33.447,-43.945,-154.419
-0.439,-0.601,2.932,54.871,-26.733,-148.376
-0.547,-0.911,3.199,77.881,12.695,-135.498
-0.632,-1.001,3.157,89.539,49.622,-119.019
-0.733,-0.677,2.626,112.183,127.563,-51.514
-0.847,-0.295,2.454,103.699,154.846,-20.386
-0.911,-0.320,2.590,84.839,183.105,-27.954
-1.132,-0.367,2.575,87.402,208.496,-27.222
-1.387,-0.291,2.316,96.802,259.277,-11.902
-1.670,-0.267,2.449,89.355,281.616,0.000
-1.814,-0.391,2.596,83.191,301.086,5.188
-2.072,-0.430,2.644,72.266,371.277,40.894
-2.313,0.057,2.086,63.904,451.721,90.210
-2.400,0.278,1.746,51.941,480.591,100.708
-2.495,0.363,1.244,6.897,506.348,89.539
-2.507,0.306,1.065,-9.888,513.977,80.811
-2.469,0.345,0.859,-6.348,518.494,82.153
-2.459,0.417,0.748,30.640,520.996,89.600
-2.436,0.285,0.628,21.362,529.907,84.351
-2.431,-0.028,0.320,2.747,543.884,83.923
-2.419,-0.196,0.275,-5.920,545.044,91.492
-2.492,-0.073,0.250,-60.852,564.087,120.056
-2.664,0.273,-0.386,-61.401,616.394,133.118
-2.571,0.350,-0.822,-50.415,633.728,126.587
-2.296,0.438,-1.261,-39.368,562.927,97.778
-2.067,0.282,-0.929,13.977,443.909,48.279
-2.028,0.080,-0.653,48.706,406.311,24.536
-2.026,-0.290,-0.652,106.750,395.691,4.639
-2.007,-0.386,-0.862,162.231,385.315,20.020
-1.962,-0.364,-1.188,172.485,364.929,32.043
-1.762,-0.279,-1.198,173.279,298.340,54.138
-1.680,-0.063,-0.701,205.444,226.074,81.604
-1.666,0.215,-0.549,224.854,212.280,99.548
-1.625,0.848,-0.585,271.057,200.500,122.925
-1.500,1.482,-0.515,272.156,169.006,123.901
-1.500,1.443,-0.576,287.170,164.307,33.142
-1.469,0.850,-0.788,294.434,150.635,22.461
-1.514,0.908,-0.756,304.321,116.760,47.852
-1.583,1.167,-0.879,305.481,111.267,70.740
-1.566,1.552,-1.493,298.584,109.863,82.642
-1.564,1.771,-1.702,296.387,71.716,78.491
-1.488,1.776,-1.781,313.965,-48.706,30.273
-1.406,1.288,-1.131,307.556,-173.340,-30.151
-1.404,0.567,-0.769,291.748,-214.172,-53.894
-1.353,0.198,-0.846,287.598,-215.393,-27.161
-1.469,1.143,-0.896,264.160,-244.812,90.637
-1.623,1.876,-0.972,319.458,-291.260,78.369
-1.704,1.722,-0.932,337.646,-326.355,30.334
-1.948,1.181,-0.832,381.775,-403.687,-58.777
-2.193,0.734,-0.096,379.333,-503.113,-118.408
-2.231,1.006,0.861,388.062,-582.642,-139.709
-2.267,1.144,1.356,393.738,-606.812,-178.162
-2.217,1.650,2.080,395.447,-560.303,-198.425
-2.502,1.900,1.234,377.319,-396.179,-294.678
-2.790,1.721,0.612,380.005,-370.483,-445.068
-3.574,1.236,0.458,380.676,-432.251,-524.048
-4.000,0.652,1.635,384.644,-551.331,-663.940
-4.000,0.188,2.253,384.521,-484.009,-765.869
-4.000,-0.707,2.002,411.438,-358.887,-805.542
-3.906,-2.167,0.534,394.653,-202.454,-974.243
-3.152,-4.000,0.703,327.209,-270.569,-1016.907
-2.181,-4.000,0.695,214.661,-236.145,-680.786
-1.094,-4.000,1.037,168.518,-213.135,35.278
-0.761,-0.178,3.042,74.402,-256.775,525.635
-0.612,1.262,3.526,51.636,-76.660,694.885
-0.396,4.000,2.538,-13.062,58.228,637.573
-0.335,3.751,0.384,17.639,188.293,116.028
-0.378,0.687,-0.150,-50.598,104.370,-229.980
-0.343,-0.546,0.015,-43.518,40.894,-272.949
-0.202,-1.313,0.641,-23.315,-53.101,-209.534
-0.080,-0.779,1.336,-11.597,-61.829,-34.241
-0.090,-0.357,1.370,-2.747,-9.277,31.616
-0.055,0.129,0.974,-9.277,5.737,39.307
-0.040,0.279,0.954,-14.648,-6.775,32.471
-0.038,0.269,1.112,-20.996,-11.780,21.667
-0.030,0.261,1.145,-26.123,-5.371,19.104
-0.053,0.184,1.057,-26.733,10.071,11.292
-0.053,0.118,0.916,-17.944,15.747,9.277
-0.063,0.135,0.893,-11.169,13.123,11.597
-0.084,0.229,0.845,2.563,11.169,14.893
-0.049,0.265,0.837,12.695,4.761,9.705
-0.051,0.321,0.886,20.203,2.563,6.653
-0.022,0.436,0.910,31.006,0.488,2.258
-0.020,0.460,0.977,28.687,-1.099,-13.977
-0.046,0.279,0.952,26.855,4.456,-25.269
-0.059,0.091,0.851,33.875,5.737,-31.677
-0.063,0.019,0.879,25.330,-0.977,-27.588
-0.065,-0.124,0.907,20.020,0.061,-22.095
-0.044,-0.075,0.865,9.705,1.038,-0.916
-0.041,0.146,0.917,8.240,-6.042,15.625
-0.032,0.226,0.942,7.202,-8.057,16.663
-0.031,0.268,0.986,0.183,-7.507,10.071
-0.033,0.240,0.951,-9.277,-2.319,3.967
-0.029,0.247,0.918,-10.376,-3.601,3.540
-0.038,0.180,0.949,-13.367,-5.737,-2.136

-0.004,1.422,2.015,-12.146,-145.325,82.275
0.013,1.615,2.287,-15.686,-131.653,0.610
0.015,1.678,2.873,-17.273,-107.544,-55.786
-0.257,1.042,3.171,-7.080,-62.866,-171.204
-0.532,-0.029,3.160,28.137,-1.892,-260.498
-0.709,-1.063,2.849,46.692,72.449,-300.049
-0.753,-1.456,2.251,63.721,138.916,-222.534
-0.749,-1.350,2.025,110.962,141.357,-86.182
-0.719,-0.649,2.187,125.977,122.559,-40.344
-0.879,-0.190,3.033,132.935,114.563,-22.583
-1.207,-0.177,2.900,180.054,207.703,-35.645
-1.486,-0.238,2.133,212.280,279.236,-28.503
-1.735,-0.393,2.005,193.298,272.461,-16.113
-1.828,-0.607,2.261,129.639,265.869,9.827
-2.086,-0.804,2.765,92.773,298.096,40.100
-2.424,-0.705,2.381,60.852,405.701,115.479
-2.576,-0.060,1.686,57.434,488.586,192.017
-2.575,0.640,1.303,79.773,518.005,222.412
-2.571,0.726,1.027,58.655,538.940,207.703
-2.442,0.161,0.333,16.907,566.284,146.057
-2.250,-0.235,0.077,-8.118,542.542,149.170
-2.105,-0.183,0.075,-10.620,515.320,183.533
-2.131,-0.067,0.185,-28.992,515.564,210.327
-2.213,0.233,0.115,-43.396,534.485,216.370
-2.265,0.448,-0.569,-28.687,580.811,209.351
-2.163,0.562,-1.136,-4.272,560.120,175.842
-1.940,0.204,-1.410,31.067,473.145,122.437
-1.694,-0.342,-1.102,43.213,368.225,90.149
-1.583,-0.585,-0.829,56.152,305.786,99.792
-1.478,-0.410,-0.313,66.895,292.297,119.019
-1.504,0.031,-0.064,74.707,296.570,143.982
-1.515,0.440,-0.154,95.520,317.078,155.273
-1.632,0.788,-0.417,124.878,326.050,147.583
-1.729,0.894,-0.846,136.902,327.820,119.202
-1.753,0.920,-1.045,131.226,319.641,105.896
-1.706,1.188,-1.442,151.367,280.396,90.088
-1.608,1.512,-1.936,166.199,211.975,48.828
-1.527,1.038,-1.850,201.538,75.623,-48.096
-1.383,0.091,-1.305,233.032,-35.889,-86.914
-1.313,-0.067,-0.933,246.399,-76.233,-65.735
-1.196,0.099,-0.187,267.090,-105.042,-2.197
-1.105,-0.004,-0.348,307.434,-45.105,55.908
-1.304,0.825,-0.990,339.844,-37.720,145.813
-1.342,1.517,-1.144,379.333,-110.657,148.804
-1.429,1.548,-1.044,409.424,-197.327,61.401
-1.537,0.474,-1.015,441.040,-270.813,-2.563
-1.626,0.395,-0.756,422.180,-321.228,8.301
-1.363,1.184,0.418,442.566,-433.960,34.119
-1.237,2.386,1.304,440.247,-476.868,21.973
-1.268,3.053,0.772,420.959,-354.858,-94.910
-1.773,2.475,-0.470,407.837,-288.147,-284.790
-2.066,1.917,-0.834,421.082,-384.888,-435.059
-2.737,0.890,-0.318,417.969,-462.708,-481.934
-3.130,0.189,0.670,414.490,-554.199,-538.391
-2.852,-0.119,1.716,348.755,-621.582,-542.175
-2.456,0.343,3.620,338.562,-613.281,-459.351
-2.501,0.840,3.856,319.031,-304.199,-429.016
-2.510,0.938,3.014,328.369,28.564,-495.239
-2.668,0.402,0.847,341.858,102.783,-561.768
-2.747,-1.278,-0.575,298.828,121.094,-700.134
-2.551,-2.590,-1.590,269.714,29.541,-769.897
-2.281,-3.796,-1.585,229.736,-68.665,-788.330
-1.211,-4.000,0.272,147.339,-301.758,-352.722
-0.529,-2.626,2.437,133.606,-347.351,-25.085
-0.073,-0.488,3.028,80.688,-165.161,179.626
-0.008,0.339,2.705,55.969,21.790,268.921
0.048,1.435,1.631,-15.137,77.637,221.313
-0.062,0.904,0.776,-59.387,104.675,15.442
-0.080,0.295,0.629,-71.533,88.562,-43.579
-0.185,-0.383,0.461,-53.528,57.983,-51.453
-0.134,-0.146,0.229,-37.964,30.518,9.460
-0.096,0.283,0.639,-50.537,-23.682,35.034
-0.048,0.358,0.838,-52.185,-35.278,27.771
-0.001,0.235,1.117,-41.809,-39.001,0.610
-0.011,0.041,1.225,-32.104,-25.818,-10.803
-0.029,-0.025,1.108,-27.283,-2.197,-3.479
-0.053,-0.016,0.983,-27.466,7.141,1.831
-0.036,0.031,0.893,-21.484,4.211,10.376
-0.038,0.052,0.964,-3.235,-6.409,13.367
-0.005,0.162,1.086,8.179,-7.080,14.282
0.011,0.258,1.160,23.437,-3.357,10.071
-0.018,0.318,0.977,38.086,10.498,1.892
-0.020,0.325,0.861,39.368,13.245,-1.831
-0.014,0.209,0.886,27.954,0.122,-14.160
-0.039,0.121,0.964,21.057,-4.272,-17.578
-0.035,0.035,0.926,16.479,2.441,-13.367
-0.032,0.003,0.983,11.292,-2.747,-7.874
-0.024,-0.025,1.043,6.470,-4.578,-6.775
-0.037,-0.015,0.992,-0.549,4.883,2.258
-0.016,0.115,0.858,-6.470,6.226,12.146
-0.014,0.152,0.905,-10.986,-0.488,12.329
-0.003,0.163,1.048,-16.968,-5.859,8.423
-0.007,0.169,1.019,-15.930,2.380,6.042
-0.011,0.189,0.976,-13.916,4.395,3.113
-0.017,0.175,0.940,-8.362,1.953,-0.549
-0.030,0.095,0.953,-1.343,-0.916,-5.737
-0.033,0.068,0.944,2.075,0.305,-4.028
-0.029,0.064,0.953,3.296,-0.366,-2.869
-0.022,0.108,0.993,9.521,-2.563,-0.488
-0.020,0.135,1.007,16.296,-2.197,-1.892

-0.112,-0.264,2.492,36.499,-31.067,-80.566
-0.167,-0.414,2.483,40.955,-11.475,-85.815
-0.280,-0.670,2.387,52.612,24.658,-80.627
-0.315,-0.694,2.315,68.176,57.739,-50.781
-0.393,-0.530,2.291,77.881,71.777,-37.292
-0.451,-0.383,2.288,97.717,95.581,-23.987
-0.515,-0.311,2.342,133.850,119.141,-21.912
-0.668,-0.312,2.269,148.865,135.742,-25.269
-0.854,-0.488,2.049,178.467,160.095,-26.489
-1.010,-0.654,2.156,202.820,166.138,-6.165
-1.114,-0.663,2.315,204.773,172.485,12.573
-1.365,-0.663,2.375,185.669,217.773,48.462
-1.469,-0.654,2.189,176.270,248.108,65.979
-1.568,-0.593,1.845,147.400,283.569,99.670
-1.578,-0.334,1.831,111.145,295.898,135.925
-1.601,-0.094,1.838,104.126,306.030,153.442
-1.628,0.199,1.485,101.196,344.421,166.748
-1.624,0.256,1.237,94.299,359.192,165.527
-1.568,0.231,1.075,93.689,358.032,161.926
-1.590,0.182,1.072,82.153,361.877,159.729
-1.616,-0.022,0.781,75.745,388.733,158.081
-1.678,-0.302,0.419,66.162,413.025,165.344
-1.717,-0.485,0.389,62.134,418.762,178.223
-1.902,-0.282,0.459,17.090,450.989,229.004
-2.141,0.272,0.034,-5.493,518.250,272.888
-2.156,0.413,-0.325,-12.329,547.241,275.879
-2.056,0.609,-0.881,-5.920,551.697,266.113
-1.842,0.708,-0.989,-4.944,492.126,233.521
-1.729,0.655,-1.030,10.193,437.195,182.190
-1.582,0.456,-1.177,43.152,409.241,155.823
-1.472,-0.147,-0.983,62.439,340.332,118.591
-1.376,-0.200,-0.678,81.665,299.438,142.212
-1.364,-0.047,-0.632,95.642,291.443,157.959
-1.328,0.304,-0.663,115.112,283.264,177.124
-1.312,0.741,-0.995,137.390,263.977,175.964
-1.306,0.904,-1.148,159.607,244.568,164.307
-1.273,0.949,-1.320,195.679,191.345,126.953
-1.212,0.731,-1.274,220.703,131.226,99.792
-1.188,0.668,-1.219,238.770,104.553,98.938
-1.137,0.724,-1.011,258.057,57.495,105.530
-1.134,0.736,-0.888,268.616,36.987,105.225
-1.103,0.549,-0.601,276.184,1.282,101.929
-1.043,0.555,-0.226,278.259,-26.123,120.605
-1.042,0.610,-0.052,285.583,-36.987,144.714
-1.063,0.738,0.095,297.363,-32.227,155.884
-1.193,0.821,0.029,309.937,-22.339,177.795
-1.255,0.837,-0.015,305.908,-21.545,187.744
-1.402,0.932,-0.054,303.772,-28.809,206.604
-1.363,1.583,0.038,330.322,-53.650,223.267
-1.399,2.013,0.243,349.731,-75.378,222.839
-1.277,2.205,0.026,344.971,-58.105,245.850
-1.493,2.783,-0.470,356.018,-73.486,100.281
-1.427,1.838,-0.877,340.027,-77.515,-33.997
-1.584,1.126,-0.844,312.561,-190.857,-39.734
-1.752,1.092,-0.510,348.450,-275.391,-55.420
-1.800,0.899,-0.269,362.183,-345.398,-93.994
-1.672,1.122,0.464,378.723,-394.409,-98.450
-1.542,2.157,1.831,378.906,-466.125,-100.952
-1.691,3.057,1.609,356.262,-293.701,-190.735
-1.916,2.880,0.646,359.314,-194.275,-281.250
-2.564,2.118,-0.372,326.904,-202.271,-457.581
-2.959,1.679,0.440,283.569,-360.229,-582.214
-3.365,0.889,0.992,276.550,-400.391,-625.488
-3.475,0.341,1.558,314.819,-375.671,-687.683
-3.476,0.101,1.526,347.107,-322.083,-714.905
-3.412,-0.525,0.978,387.878,-199.219,-757.385
-3.189,-1.288,0.191,369.873,-105.347,-790.039
-3.073,-2.154,-0.831,340.393,-63.232,-796.204
-2.751,-2.979,-1.192,303.345,-77.942,-821.411
-1.727,-4.000,-0.488,129.822,-244.324,-533.997
-0.775,-4.000,1.870,101.929,-386.414,-141.418
-0.346,-2.876,3.091,74.768,-297.363,155.090
0.098,-0.247,3.948,92.163,-194.885,233.765
0.052,1.412,2.553,51.025,56.763,323.425
-0.051,1.800,1.434,21.667,187.561,163.818
-0.071,1.638,-0.170,-40.161,172.913,76.416
-0.078,0.417,-0.120,-65.002,31.494,-68.970
-0.067,-0.278,0.878,-44.067,-70.862,-81.726
-0.032,-0.405,1.148,-27.954,-67.017,-65.857
-0.003,-0.356,1.091,-8.118,-24.048,-20.447
0.018,-0.085,0.955,-11.475,-11.597,16.479
0.029,0.038,1.005,-16.113,-14.709,30.457
0.060,0.199,1.101,-24.048,-10.376,30.701
0.047,0.259,0.989,-15.808,3.601,24.109
0.045,0.258,0.905,-9.949,6.165,19.714
0.028,0.223,0.952,4.761,-3.601,11.475
0.037,0.247,0.988,13.855,-6.042,9.094
0.046,0.277,1.020,27.893,-4.944,1.709
0.033,0.255,0.999,29.480,3.357,-4.944
0.027,0.277,0.862,26.855,4.456,-5.127
0.047,0.287,0.970,19.897,-6.653,-9.399
0.029,0.239,1.036,18.127,-8.301,-14.038
0.025,0.118,0.927,18.494,2.441,-17.700
0.021,-0.002,0.891,10.864,-1.221,-14.221
0.005,-0.049,0.936,-0.061,-3.235,-2.197
0.025,0.010,0.926,-2.136,-1.343,6.836
0.056,0.207,0.974,-7.812,-3.662,18.494
0.054,0.261,1.005,-9.399,-4.150,13.733
0.058,0.291,0.958,-10.071,0.305,9.216
0.055,0.211,0.986,-6.653,-3.906,-0.488

-0.197,-0.194,2.355,66.345,4.944,-72.144
-0.236,-0.294,2.298,67.566,31.921,-68.542
-0.329,-0.465,2.057,72.327,65.979,-62.622
-0.429,-0.530,2.179,88.135,70.435,-40.771
-0.479,-0.535,2.232,97.473,80.811,-28.625
-0.597,-0.439,2.165,106.995,114.258,-2.319
-0.739,-0.293,2.163,90.271,141.418,15.381
-0.804,-0.261,2.168,79.163,155.579,18.494
-0.983,-0.448,2.120,91.980,184.814,18.738
-1.079,-0.533,2.117,96.619,196.594,25.146
-1.277,-0.454,2.280,121.399,217.651,57.922
-1.551,-0.192,2.447,144.958,255.676,91.003
-1.677,-0.194,2.276,130.981,292.603,95.032
-1.842,-0.283,1.681,89.661,347.473,99.609
-1.982,-0.282,1.448,73.364,359.253,119.629
-1.964,-0.245,1.481,83.679,367.249,139.771
-1.936,0.034,1.344,108.398,414.551,195.374
-1.895,0.216,1.141,81.604,471.375,227.417
-1.880,0.555,0.752,48.950,491.943,223.206
-1.869,0.422,0.253,0.732,528.809,187.256
-1.843,0.230,-0.057,-13.367,541.382,168.091
-1.842,0.009,-0.671,3.418,539.429,164.368
-1.676,0.175,-0.928,21.484,475.464,185.608
-1.521,0.217,-0.867,27.222,434.265,186.279
-1.402,0.136,-0.290,3.479,370.789,163.696
-1.608,-0.099,0.238,-10.620,382.385,143.738
-1.799,-0.268,0.174,-6.165,428.223,142.883
-2.232,-0.428,-0.604,-12.207,521.851,166.443
-2.307,-0.304,-1.375,-23.071,531.250,207.825
-2.184,-0.022,-1.387,-22.461,490.112,232.178
-1.942,0.719,-1.073,1.343,412.964,243.958
-1.837,1.058,-1.069,59.143,372.925,198.425
-1.583,1.499,-1.182,82.642,346.497,154.907
-1.270,1.407,-1.085,128.479,268.982,49.011
-1.182,1.218,-0.824,157.349,189.209,-36.133
-1.104,0.688,-0.592,172.424,151.672,-73.425
-1.213,-0.053,0.201,183.044,104.309,-74.707
-1.439,0.145,-0.045,215.210,176.758,-7.202
-1.616,0.536,-0.525,223.572,212.158,29.785
-1.913,1.436,-1.633,245.605,231.750,71.960
-2.039,2.140,-2.840,287.842,167.114,68.359
-1.946,2.128,-3.281,285.889,-55.908,-39.551
-1.831,0.802,-2.125,280.457,-183.167,-84.106
-1.637,0.204,-0.776,290.405,-290.771,-79.773
-1.566,0.193,-0.912,296.021,-268.860,-4.639
-1.642,-0.099,-0.933,298.340,-286.255,104.553
-1.805,0.417,-0.828,258.240,-325.806,163.757
-1.397,1.600,-0.048,302.368,-395.569,189.148
-1.364,2.050,0.156,366.638,-468.567,176.880
-1.375,3.121,0.401,345.459,-467.285,120.422
-1.592,1.990,0.136,306.335,-437.683,-111.084
-1.926,0.582,-0.493,331.055,-427.551,-226.318
-2.144,0.054,-0.543,356.079,-469.910,-246.338
-2.618,-0.112,-0.076,380.005,-574.402,-229.858
-2.935,0.140,0.383,421.448,-688.354,-250.549
-3.569,0.538,1.491,433.411,-726.746,-291.870
-3.121,0.734,3.708,379.822,-850.952,-357.605
-2.746,1.295,4.000,387.390,-631.470,-368.286
-2.386,1.188,4.000,418.274,-347.473,-425.110
-2.320,1.312,1.200,416.504,2.136,-564.209
-3.082,-0.701,-0.186,459.717,-38.147,-810.791
-3.164,-2.097,-0.337,429.138,-70.374,-1114.868
-2.477,-4.000,-0.651,144.714,-83.984,-997.498
-0.764,-4.000,0.858,35.828,-279.785,-176.086
-0.580,-3.085,2.100,110.046,-344.604,391.663
-0.253,1.165,3.669,129.700,-257.812,529.114
-0.165,3.812,2.599,17.151,26.001,530.518
-0.116,3.931,1.219,46.753,191.284,69.336
-0.199,1.804,-0.445,-30.579,160.034,-100.891
-0.179,-0.383,0.166,-42.725,-28.809,-227.661
-0.125,-0.809,0.760,-36.438,-92.285,-210.815
-0.090,-1.000,1.517,-8.301,-76.782,-106.812
-0.060,-0.615,1.103,-0.427,0.061,1.709
-0.055,-0.324,0.872,-19.592,6.775,59.631
-0.035,0.274,0.870,-22.339,-6.958,69.702
-0.013,0.549,0.951,-25.208,-14.709,59.570
-0.014,0.557,0.954,-22.583,-11.658,32.776
0.002,0.455,0.962,-24.597,-11.536,21.790
0.003,0.341,1.073,-21.057,-13.306,8.301
-0.023,0.272,1.058,-14.771,-2.563,2.014
-0.022,0.247,1.013,-10.681,1.587,0.244
-0.026,0.216,1.032,-3.357,1.892,-1.465
-0.049,0.336,0.840,18.860,12.573,1.099
-0.050,0.388,0.764,25.146,12.146,-0.549
-0.060,0.351,0.823,26.978,-2.808,-12.817
-0.042,0.168,0.885,34.119,-8.240,-23.804
-0.019,0.084,0.937,33.447,-11.169,-23.682
-0.022,0.005,1.080,24.292,-12.085,-13.794
-0.027,0.139,0.917,19.165,3.601,3.906
-0.009,0.236,0.865,14.099,2.747,8.301
-0.010,0.257,0.999,2.686,-10.071,3.540
-0.015,0.172,1.072,-5.859,-5.005,-0.244
-0.021,0.200,1.017,-5.981,0.244,3.357
-0.048,0.231,0.885,-12.756,4.944,5.249
-0.044,0.194,0.881,-20.325,-0.122,2.747
-0.036,0.209,0.915,-14.709,-3.540,3.967
-0.031,0.248,0.983,-6.897,-5.859,3.052
-0.025,0.197,1.005,-6.714,-2.625,-1.404
-0.023,0.175,1.000,-5.676,-0.610,-1.831
-0.004,0.215,0.977,5.493,0.366,1.099

-0.073,0.179,2.365,30.884,-5.188,-43.152
-0.140,0.180,2.240,61.707,39.429,-50.720
-0.232,0.014,1.944,73.547,51.819,-55.786
-0.354,-0.140,1.848,85.693,59.692,-57.800
-0.378,-0.223,1.883,91.064,58.777,-52.246
-0.465,-0.385,2.295,96.741,65.552,-47.668
-0.595,-0.496,2.385,118.164,107.849,-28.931
-0.670,-0.407,2.508,154.968,144.348,9.888
-0.901,-0.029,2.588,164.368,167.603,23.682
-1.190,0.031,2.494,158.447,233.398,24.170
-1.317,-0.151,2.290,146.851,265.259,18.799
-1.533,-0.502,2.075,104.065,304.810,29.236
-1.638,-0.514,2.063,73.303,331.055,71.411
-1.837,-0.292,2.103,67.932,348.694,94.482
-1.912,0.170,2.070,45.776,399.475,129.761
-1.959,0.304,1.926,16.052,437.073,130.798
-2.033,0.211,1.232,-13.672,511.353,109.680
-2.035,0.074,0.884,-8.057,530.945,102.905
-1.975,-0.046,0.371,20.264,530.518,111.450
-1.812,-0.039,0.270,44.861,507.996,131.226
-1.816,0.043,0.271,52.734,500.549,144.653
-1.787,-0.056,0.242,11.780,504.700,149.353
-1.876,-0.225,0.205,-15.259,514.038,150.146
-2.114,-0.257,-0.109,-16.968,545.471,178.284
-2.162,-0.018,-0.735,-3.601,568.176,210.083
-2.092,0.050,-0.901,-9.033,546.265,213.135
-1.920,0.103,-0.887,-5.737,473.267,199.585
-1.776,0.056,-0.783,18.433,412.476,171.082
-1.668,-0.120,-0.628,30.823,386.108,154.358
-1.585,-0.182,-0.224,50.110,347.717,150.818
-1.557,0.206,0.145,60.486,338.074,163.940
-1.590,0.507,0.255,66.528,346.252,167.236
-1.876,0.937,0.141,78.430,393.005,149.170
-2.000,1.008,-0.203,93.628,425.110,134.399
-2.191,1.468,-1.193,114.929,457.581,121.643
-2.159,1.943,-1.711,120.605,437.683,97.412
-2.094,1.836,-2.523,151.123,309.875,-20.325
-1.896,0.637,-2.489,198.425,119.263,-129.883
-1.795,0.044,-2.001,215.149,24.414,-150.085
-1.524,-0.779,-0.907,236.450,-83.557,-119.141
-1.456,-0.656,-0.456,272.278,-71.167,-0.916
-1.459,-0.285,-0.636,303.955,-32.837,119.507
-1.479,0.452,-0.851,319.824,-51.636,152.222
-1.544,1.040,-0.668,336.609,-97.900,180.786
-1.513,1.167,-0.771,371.643,-124.329,163.757
-1.575,1.641,-0.962,369.568,-153.503,130.005
-1.444,1.112,-0.818,373.901,-223.083,39.978
-1.461,1.255,-0.665,361.633,-287.903,21.851
-1.569,1.105,-0.548,395.996,-310.059,-7.935
-1.632,0.541,-0.351,404.419,-371.948,-50.110
-1.639,0.601,0.034,405.640,-464.417,-32.715
-1.659,1.231,0.864,396.545,-481.934,-29.663
-1.643,1.662,1.182,402.832,-444.580,-76.721
-1.647,1.547,1.156,396.057,-380.676,-168.274
-1.851,0.790,0.618,394.531,-361.511,-204.773
-1.934,0.452,0.553,358.093,-400.940,-230.408
-1.995,0.548,1.409,299.744,-483.093,-239.380
-1.941,0.533,1.818,278.198,-497.070,-249.634
-1.738,0.652,2.370,255.005,-445.068,-263.855
-1.586,1.047,2.307,295.532,-343.933,-289.734
-1.595,1.200,2.233,334.595,-291.809,-322.144
-1.530,1.424,1.991,405.029,-177.002,-417.908
-1.898,1.278,1.202,518.921,-44.922,-547.546
-2.264,0.877,0.630,550.415,22.156,-621.582
-2.747,-0.902,-0.823,474.609,136.108,-755.859
-2.693,-3.198,-1.681,244.995,52.979,-914.734
-2.227,-4.000,-1.187,90.332,-77.881,-919.739
-0.904,-4.000,0.746,4.517,-292.114,-291.199
-0.430,-1.907,2.530,51.819,-278.992,261.169
-0.307,-0.051,2.714,118.225,-124.207,506.409
-0.273,1.977,2.218,84.412,-43.579,540.527
-0.162,3.656,1.060,55.908,84.778,265.808
-0.193,2.765,0.521,59.570,96.497,46.509
-0.260,0.498,0.459,-74.280,34.607,-202.332
-0.238,-0.381,0.656,-75.500,-2.136,-220.764
-0.138,-1.077,1.050,-47.363,-37.231,-190.613
-0.076,-0.988,1.234,-33.630,-24.963,-47.546
-0.078,-0.346,1.147,-23.682,0.977,47.241
-0.057,0.016,1.015,-17.578,10.925,72.083
-0.013,0.558,0.881,-0.366,5.249,80.566
0.005,0.720,0.935,2.563,-10.681,52.673
-0.023,0.750,1.032,-2.502,-7.935,30.273
-0.026,0.518,0.919,-8.362,3.357,-11.475
-0.031,0.337,0.917,-7.019,0.061,-41.260
-0.026,0.076,1.092,0.244,-9.583,-32.715
0.008,0.032,1.174,11.353,-1.831,-21.851
-0.005,0.069,1.133,19.958,4.517,-15.747
-0.060,0.180,0.876,33.264,18.616,-7.751
-0.067,0.207,0.726,24.963,12.451,-8.606
-0.083,0.178,0.748,18.433,4.028,-10.376
-0.056,0.101,0.882,7.812,-8.118,-9.705
-0.017,0.097,1.053,-0.061,-11.963,-2.197
-0.022,0.136,1.080,-2.075,-7.202,1.465
-0.014,0.280,0.951,-1.465,5.676,6.836
-0.035,0.235,0.917,-12.329,3.784,-1.343
-0.043,0.196,0.889,-15.442,3.845,-4.028
-0.030,0.243,0.825,-4.028,0.610,-0.732
-0.050,0.232,0.929,-4.517,-7.874,-5.737
-0.059,0.188,0.941,-5.066,-6.775,-9.399
-0.038,0.125,0.924,3.296,-5.615,-10.376

0.074,0.541,2.157,17.822,-45.227,-37.292
0.023,0.550,2.298,28.687,-25.635,-60.181
-0.068,0.336,2.469,49.316,-11.963,-74.463
-0.246,0.041,2.555,79.285,14.404,-89.478
-0.349,-0.150,2.509,89.172,33.569,-93.506
-0.484,-0.568,2.363,92.896,69.153,-90.759
-0.623,-0.650,2.477,101.074,89.722,-58.044
-0.701,-0.475,2.723,118.347,101.013,-35.950
-0.933,-0.163,2.731,171.570,159.058,-10.742
-1.082,-0.389,2.414,178.223,208.191,-12.756
-1.309,-0.567,2.456,172.913,215.149,-6.409
-1.557,-0.596,2.815,191.711,237.854,41.199
-1.708,-0.483,2.757,186.035,314.575,95.337
-1.955,-0.254,2.090,167.786,345.215,110.901
-2.005,-0.188,1.708,137.207,362.122,132.751
-1.989,-0.131,1.730,130.188,359.985,146.362
-2.064,0.012,1.842,101.379,384.766,171.936
-2.086,0.088,1.773,64.514,415.344,177.734
-2.173,0.049,1.484,14.221,480.286,185.547
-2.332,0.078,1.181,-38.391,547.668,192.810
-2.451,0.128,0.843,-63.782,590.515,193.298
-2.501,0.031,0.040,-59.448,635.986,186.890
-2.457,0.044,-0.146,-64.880,630.005,189.087
-2.472,0.311,-0.269,-78.613,606.323,184.875
-2.452,0.405,-0.477,-38.452,589.661,159.973
-2.547,0.347,-0.680,-40.649,589.661,119.629
-2.495,-0.106,-1.525,-7.507,590.271,101.746
-2.037,-0.488,-1.826,-15.625,478.516,89.844
-1.864,-0.408,-1.412,-20.386,394.592,100.403
-1.573,-0.093,-0.620,2.502,313.110,109.924
-1.427,0.228,-0.476,52.979,300.964,101.868
-1.382,0.272,-0.348,78.064,272.949,79.956
-1.236,0.206,0.165,76.050,260.193,76.233
-1.419,0.603,0.187,94.604,310.486,87.646
-1.537,0.812,-0.312,114.624,353.516,86.304
-1.714,1.020,-1.459,138.977,380.859,65.979
-1.649,1.073,-1.891,151.001,348.938,28.748
-1.431,1.318,-2.080,179.321,226.318,4.578
-1.423,1.069,-1.974,211.975,104.553,-57.434
-1.405,0.555,-1.846,213.867,53.284,-90.759
-1.394,0.099,-1.431,225.037,-21.179,-73.364
-1.386,0.505,-1.733,220.459,-35.828,-20.569
-1.324,0.641,-1.847,228.699,-63.599,-9.888
-1.236,0.432,-1.527,250.305,-152.100,-13.916
-1.149,0.072,-0.803,254.700,-235.596,-1.831
-1.080,-0.051,-0.434,259.155,-259.521,18.799
-1.034,-0.133,0.179,265.503,-261.963,96.680
-1.109,0.260,0.011,241.394,-178.711,192.566
-1.247,0.620,-0.492,266.174,-143.860,236.084
-1.288,0.767,-0.477,284.668,-166.992,243.958
-1.371,1.112,-0.036,332.214,-223.145,247.803
-1.409,1.305,0.048,376.099,-228.577,228.088
-1.509,1.636,-0.302,393.555,-232.361,200.867
-1.797,1.471,-0.457,429.626,-294.861,107.849
-1.766,1.706,0.347,448.242,-417.725,36.865
-1.768,2.019,0.791,460.815,-468.140,13.184
-1.965,2.521,0.779,488.770,-435.791,-86.914
-2.263,2.434,-0.211,521.362,-387.573,-278.870
-3.017,1.903,-0.200,501.831,-433.472,-387.390
-3.758,1.454,1.174,410.156,-584.656,-508.789
-3.979,1.151,2.582,362.549,-595.093,-580.811
-3.962,1.095,2.885,356.934,-518.372,-610.046
-4.000,1.668,1.996,416.077,-310.608,-724.243
-4.000,-0.898,0.078,520.203,-108.398,-1006.714
-4.000,-2.221,-0.970,492.798,-33.752,-1153.259
-3.974,-4.000,-2.411,171.936,-109.070,-1166.992
-2.049,-4.000,0.708,91.553,-519.348,-267.273
-1.460,-3.930,3.191,41.260,-633.240,113.342
-0.347,0.298,4.000,81.116,-383.728,437.134
-0.130,1.660,4.000,31.677,160.278,487.183
-0.213,3.667,0.864,-16.052,329.834,427.490
-0.333,2.371,-1.516,1.221,256.592,14.526
-0.266,1.243,-1.285,-30.945,93.384,-108.765
-0.247,-0.619,0.586,-46.814,-150.635,-201.233
-0.138,-1.171,1.826,-30.029,-131.470,-137.512
-0.055,-1.093,1.797,-28.992,-17.029,3.235
0.005,-0.371,1.246,-15.137,9.766,57.983
-0.005,0.621,1.084,-23.376,14.465,109.192
-0.053,0.921,1.003,-30.029,16.968,99.731
-0.026,0.693,0.736,-16.602,23.499,22.217
-0.033,0.113,0.785,-3.784,2.808,-15.991
-0.043,0.004,0.850,3.113,-3.479,-10.437
-0.035,0.033,0.929,12.451,-6.958,7.690
-0.024,0.157,1.001,33.325,-13.123,19.897
0.001,0.386,1.123,36.072,-11.292,16.235
0.002,0.416,1.118,29.663,2.686,3.906
0.003,0.430,1.026,27.527,11.841,-0.122
-0.030,0.415,0.759,23.315,20.508,-9.766
-0.032,0.374,0.691,21.606,15.747,-15.686
-0.053,0.144,0.768,15.808,-3.113,-26.917
-0.047,-0.015,0.912,14.221,-11.536,-21.423
-0.044,-0.022,0.951,14.099,-11.780,-13.550
-0.016,0.005,1.017,2.563,-8.911,0.122
-0.017,0.088,1.036,-2.747,-5.493,8.179
0.003,0.310,0.923,-7.263,5.188,16.724
-0.007,0.341,0.858,-5.066,0.854,6.775
-0.014,0.301,0.866,0.305,-3.235,-15.076
-0.008,0.231,0.982,10.071,-11.597,-6.714
-0.025,0.168,1.025,13.184,-8.545,-9.094
-0.020,0.151,0.997,13.000,-3.967,-6.653

-0.114,0.024,2.629,41.687,-32.410,-60.059
-0.170,-0.159,2.827,56.213,-16.724,-68.054
-0.300,-0.561,2.907,80.811,42.236,-65.308
-0.420,-0.379,2.902,105.591,100.525,-20.813
-0.507,-0.145,2.811,118.164,131.104,-1.587
-0.703,-0.027,2.507,120.605,183.167,1.221
-0.882,-0.245,2.355,123.718,206.482,-5.737
-1.005,-0.401,2.459,131.592,209.595,-2.258
-1.234,-0.477,2.733,116.638,236.389,28.198
-1.475,-0.225,2.443,114.075,295.776,67.993
-1.523,-0.157,2.137,124.207,319.153,79.956
-1.633,-0.062,1.824,113.708,333.252,98.755
-1.705,0.102,1.704,88.745,353.577,117.737
-1.689,0.192,1.657,83.008,368.713,125.305
-1.756,0.327,1.613,29.968,409.546,126.221
-1.785,0.265,1.405,-24.170,463.257,111.389
-1.758,0.148,1.228,-43.030,479.553,106.689
-1.849,-0.033,0.993,-89.844,529.114,92.346
-1.981,-0.007,0.658,-109.741,582.886,91.675
-2.068,-0.004,0.310,-111.511,610.962,90.149
-2.066,-0.185,-0.461,-97.412,623.291,83.496
-1.913,-0.251,-0.947,-78.857,576.782,86.182
-1.793,-0.245,-0.945,-82.275,530.579,85.938
-1.590,-0.055,-0.130,-123.474,442.932,84.717
-1.671,-0.031,-0.296,-95.337,469.360,59.143
-1.723,-0.168,-0.745,-42.419,466.370,26.855
-1.656,-0.507,-1.316,-18.372,424.744,17.700
-1.513,-0.653,-1.210,14.893,333.374,23.560
-1.255,-0.334,-0.782,51.147,259.460,48.096
-1.183,-0.139,-0.523,65.430,237.854,53.650
-1.149,0.164,-0.620,89.539,239.868,49.377
-1.155,0.245,-0.980,114.258,225.586,34.485
-1.141,0.126,-1.051,129.761,204.529,24.780
-1.023,-0.111,-0.613,154.175,145.752,20.630
-0.981,0.186,-0.489,177.429,141.602,45.715
-0.922,0.231,-0.589,192.810,141.785,47.485
-0.954,0.485,-0.230,205.017,119.263,64.514
-1.152,0.902,-0.735,207.703,166.626,90.576
-1.190,1.182,-1.243,217.834,183.105,104.248
-1.132,1.628,-1.486,218.567,112.671,90.210
-1.077,1.056,-1.126,243.469,32.898,15.564
-1.018,0.286,-0.884,271.851,-9.949,1.709
-1.026,0.053,-0.654,279.602,-31.860,20.020
-1.098,0.216,-0.382,268.372,-37.903,91.858
-1.206,0.885,-0.794,266.663,-16.541,152.771
-1.264,1.337,-1.270,280.518,-35.217,150.635
-1.333,1.152,-1.307,307.373,-93.933,100.891
-1.357,0.976,-1.400,325.989,-117.493,65.247
-1.459,0.189,-1.033,341.919,-193.848,66.895
-1.439,0.437,-0.337,297.241,-238.647,157.104
-1.369,1.248,-0.043,302.368,-243.347,207.825
-1.311,1.729,0.236,293.762,-253.174,197.754
-1.302,1.968,0.133,306.091,-232.239,147.217
-1.349,2.125,-0.288,328.369,-237.793,99.487
-1.566,1.640,-0.391,410.278,-288.391,-24.292
-1.591,1.050,0.085,457.214,-356.812,-110.535
-1.636,1.578,0.808,440.186,-417.175,-133.179
-1.744,1.912,1.414,410.217,-421.814,-198.425
-1.925,1.779,1.340,400.330,-330.994,-297.913
-2.120,1.780,0.937,416.748,-248.657,-401.733
-2.639,1.951,0.430,428.162,-248.901,-542.236
-3.324,2.070,0.858,455.933,-284.058,-617.187
-4.000,0.933,0.516,512.939,-179.993,-820.984
-4.000,-1.447,-1.333,473.938,-18.555,-1005.005
-4.000,-3.918,-2.201,300.476,-138.123,-1213.135
-2.573,-4.000,0.212,102.539,-444.275,-708.801
-1.025,-4.000,4.000,30.884,-534.424,-0.427
-0.253,-0.108,4.000,62.317,-141.907,414.734
-0.550,2.062,1.399,25.208,210.999,543.152
-0.228,3.844,-0.007,6.104,250.977,491.821
-0.279,2.905,-1.017,4.395,115.356,44.189
-0.241,0.276,0.473,-42.969,-97.229,-195.801
-0.128,-0.972,1.472,-18.860,-103.821,-201.172
0.012,-1.043,1.293,-4.944,-25.574,-68.481
-0.003,-0.712,1.032,-12.329,-1.465,38.391
0.016,0.182,1.001,-20.325,-0.610,65.369
0.023,0.556,1.111,-19.958,-5.676,52.490
0.028,0.630,0.991,-7.690,8.179,26.489
0.006,0.393,0.976,-1.404,5.554,-3.662
-0.013,0.093,0.905,4.944,10.193,-14.526
-0.007,0.115,0.807,12.207,10.742,-6.104
-0.001,0.142,0.973,17.273,-5.066,-2.441
0.008,0.232,0.965,19.653,1.526,3.479
0.019,0.269,0.938,19.470,1.831,2.075
0.007,0.244,0.931,15.869,3.723,0.000
0.006,0.288,0.838,12.817,3.296,1.221
-0.005,0.237,0.928,0.061,-5.066,-1.831
-0.013,0.161,0.966,-3.052,-2.014,-2.319
-0.019,0.121,0.870,-5.371,2.808,0.122
-0.003,0.140,0.908,-5.676,-3.418,4.700
0.022,0.174,0.944,0.610,-7.263,8.972
0.020,0.277,1.008,2.075,-5.493,8.850
0.016,0.321,0.943,2.930,1.465,3.723
-0.012,0.289,0.875,8.484,0.732,-3.113
-0.013,0.195,0.909,5.188,-3.174,-8.301
-0.019,0.142,0.931,4.211,-2.075,-7.141
-0.010,0.126,0.891,0.732,-1.465,-3.540
0.009,0.129,0.992,-3.235,-6.714,0.732
0.006,0.220,0.989,0.977,-1.892,6.348
0.008,0.280,0.910,2.319,-0.427,4.761

-0.078,-0.424,2.418,72.205,1.526,-83.130
-0.116,-0.471,2.508,76.355,19.592,-52.429
-0.260,-0.372,2.511,101.685,68.970,-36.316
-0.381,-0.224,2.231,117.126,116.150,-19.592
-0.433,-0.218,2.177,118.286,126.282,-17.578
-0.575,-0.306,2.226,134.583,140.808,-11.047
-0.718,-0.402,2.239,136.536,169.434,5.737
-0.796,-0.372,2.258,133.606,185.547,20.142
-0.950,-0.223,2.374,120.972,221.863,47.180
-1.054,-0.163,2.450,105.591,245.483,55.725
-1.254,-0.245,2.521,61.035,309.631,68.176
-1.498,-0.137,2.151,7.019,390.747,85.449
-1.578,-0.089,1.819,-10.803,423.828,88.379
-1.598,-0.010,1.544,-23.254,447.449,89.722
-1.613,0.143,1.618,-36.804,453.796,85.999
-1.725,0.344,1.541,-74.524,497.131,70.435
-1.873,-0.111,1.415,-100.891,545.471,33.569
-1.982,-0.333,1.239,-121.643,594.238,36.743
-2.221,-0.588,0.552,-75.745,631.897,58.411
-2.224,-0.192,-0.200,-83.618,643.066,104.248
-2.148,0.018,-0.441,-69.885,599.182,108.398
-1.927,0.288,-0.737,-61.768,562.866,96.558
-1.677,0.269,-0.859,-36.133,489.563,59.875
-1.572,0.161,-0.834,-22.522,453.430,40.100
-1.434,0.057,-0.806,22.583,391.052,15.320
-1.292,-0.121,-0.728,70.190,337.158,1.648
-1.221,-0.191,-0.540,73.853,297.668,11.292
-1.164,0.032,-0.325,80.566,294.495,19.531
-1.214,0.186,-0.392,93.323,296.021,26.672
-1.266,0.283,-0.798,114.197,299.866,26.611
-1.263,0.364,-0.921,130.859,285.645,26.917
-1.224,0.410,-0.868,148.132,237.427,9.094
-1.235,0.283,-0.601,195.068,198.425,-9.644
-1.287,0.208,-0.612,217.957,195.618,-13.611
-1.469,-0.140,-0.805,242.004,192.749,-4.272
-1.736,-0.186,-0.913,219.910,196.716,60.303
-1.887,0.422,-1.184,205.872,212.402,112.122
-2.005,1.555,-2.136,216.919,228.699,153.076
-1.870,1.456,-2.968,246.399,119.324,41.687
-1.754,0.755,-2.762,262.756,8.911,-18.860
-1.437,-0.295,-1.130,260.071,-192.078,-49.011
-1.260,-0.680,0.168,261.292,-238.525,6.409
-1.077,-0.654,0.500,263.062,-209.167,54.871
-1.116,-0.162,0.550,278.564,-104.858,168.823
-1.286,0.999,-0.425,324.219,-25.818,248.291
-1.551,1.340,-0.864,334.473,-25.635,249.878
-1.623,1.372,-1.429,357.910,-104.370,207.703
-1.561,1.543,-0.662,347.656,-249.207,165.771
-1.464,1.539,-0.097,351.685,-319.641,113.220
-1.219,1.810,0.646,358.459,-319.824,95.032
-1.120,2.091,0.514,347.534,-257.568,37.964
-1.301,1.646,-0.360,349.121,-212.402,-48.035
-1.409,1.223,-0.662,361.023,-230.835,-88.135
-1.656,0.456,-0.315,390.747,-352.905,-129.395
-1.854,0.310,0.607,432.922,-458.557,-134.155
-1.797,0.470,1.513,418.457,-534.912,-134.338
-1.358,1.290,1.978,379.883,-565.002,-127.441
-1.775,2.210,3.427,370.056,-523.132,-172.485
-1.912,2.421,2.365,397.034,-204.895,-328.735
-2.292,2.243,1.264,456.360,-14.160,-529.663
-2.967,1.460,-0.262,430.115,1.892,-618.591
-3.451,0.290,-0.869,359.619,-87.646,-778.809
-3.504,-0.692,-0.745,274.658,-259.949,-913.940
-3.509,-2.073,0.461,257.141,-342.407,-972.900
-2.898,-4.000,1.807,195.251,-367.432,-1039.978
-1.748,-4.000,2.165,61.035,-284.424,-716.248
-0.592,-4.000,1.826,172.180,-151.733,-0.305
-0.442,0.491,1.782,127.380,-88.867,507.019
-0.393,1.546,1.653,127.869,-63.843,625.183
-0.152,4.000,1.222,48.828,-0.305,496.582
-0.144,3.034,0.698,43.884,15.747,9.827
-0.161,1.741,0.855,-16.846,-0.610,-149.048
-0.148,-0.451,1.060,-32.532,-17.090,-265.930
-0.100,-1.197,0.980,-19.287,-9.338,-206.726
0.005,-0.946,0.884,-27.039,-7.935,-40.710
0.009,-0.499,0.954,-21.179,-14.465,21.240
0.043,0.386,1.080,-7.446,-16.724,76.843
0.028,0.803,1.052,11.230,-7.812,61.707
0.017,0.817,0.999,12.573,-2.930,39.612
0.008,0.536,0.865,11.108,1.160,-10.315
0.021,0.340,0.883,6.836,-7.202,-27.832
0.003,0.161,0.946,6.836,-7.019,-24.719
0.039,0.198,1.029,14.038,-10.254,-16.479
0.018,0.198,1.095,18.860,-11.230,-16.174
0.011,0.146,1.010,26.794,0.977,-15.991
0.003,0.140,0.937,29.053,4.395,-13.123
-0.004,0.244,0.858,30.090,1.465,-4.578
0.003,0.366,0.947,19.592,-5.005,-2.747
-0.001,0.317,0.986,10.071,-4.395,-8.179
0.007,0.120,0.928,-4.517,2.686,-14.343
0.004,0.090,0.908,-4.028,-0.244,-5.981
0.005,0.120,0.944,-3.540,-3.174,-1.709
0.004,0.209,0.982,-1.648,-2.441,2.625
0.017,0.241,0.958,1.038,1.160,1.526
-0.004,0.271,0.894,2.991,1.648,0.183
0.006,0.277,0.880,3.418,-2.014,-2.441
0.007,0.253,0.939,2.625,-5.798,-5.249
0.011,0.180,1.003,5.310,-5.737,-9.216
0.010,0.168,1.010,9.033,-4.395,-9.277
0.002,0.143,0.967,9.827,-0.732,-7.996

-0.107,-0.144,2.284,101.563,45.044,-41.077
-0.158,-0.050,2.316,117.798,91.370,-40.955
-0.265,-0.109,2.072,129.333,99.609,-46.753
-0.349,-0.436,1.832,124.084,116.516,-49.988
-0.389,-0.575,1.831,101.929,119.507,-28.870
-0.451,-0.554,2.011,108.459,121.582,-10.742
-0.563,-0.202,2.323,126.770,138.977,19.409
-0.661,-0.139,2.349,133.728,187.866,23.132
-0.824,-0.414,2.248,114.624,214.966,24.292
-1.006,-0.512,1.975,84.106,272.156,49.683
-1.091,-0.484,1.726,72.693,296.570,76.782
-1.135,-0.318,1.446,69.275,310.486,86.853
-1.133,-0.169,1.508,67.322,313.293,94.788
-1.189,-0.187,1.482,67.200,325.378,96.252
-1.195,-0.120,1.436,64.514,357.117,113.647
-1.247,-0.123,1.297,53.894,380.676,121.155
-1.316,-0.235,0.861,26.855,420.532,130.371
-1.339,-0.201,0.701,30.029,422.668,150.940
-1.302,-0.033,0.679,39.551,417.603,160.889
-1.353,-0.130,0.470,5.920,437.744,164.185
-1.399,-0.159,0.288,-12.695,450.684,168.640
-1.415,0.052,0.047,-35.339,462.585,186.218
-1.442,0.037,-0.123,-48.706,460.144,180.359
-1.395,-0.172,-0.146,-59.204,455.139,169.556
-1.440,-0.229,-0.257,-47.607,446.594,170.471
-1.613,-0.343,-0.675,39.246,447.205,186.523
-1.570,0.353,-0.959,27.710,417.114,195.984
-1.471,0.065,-1.157,14.771,375.916,155.701
-1.413,0.043,-0.893,26.306,313.782,151.733
-1.378,0.216,-0.994,45.532,303.772,153.015
-1.330,0.275,-1.089,70.557,267.700,130.676
-1.245,0.226,-0.774,80.139,228.394,121.460
-1.216,0.458,-0.770,86.243,226.318,126.709
-1.151,0.818,-0.693,104.004,208.862,108.643
-1.106,0.719,-0.628,128.296,190.979,65.552
-1.055,0.344,-0.385,140.259,183.350,55.725
-1.159,0.303,-0.200,167.480,188.660,59.387
-1.236,0.458,-0.126,173.462,197.510,69.336
-1.539,0.959,-0.442,184.082,237.610,85.266
-1.802,1.069,-1.432,197.998,265.015,73.425
-1.916,1.088,-1.969,207.153,251.343,64.758
-1.953,1.174,-2.983,222.534,155.090,43.335
-1.970,0.895,-2.880,269.531,-54.504,-3.601
-1.911,0.569,-2.328,282.593,-153.931,-22.034
-1.775,0.087,-1.213,288.391,-266.724,-7.690
-1.650,0.135,-0.619,261.108,-275.513,61.523
-1.625,0.444,-0.536,245.483,-249.634,134.338
-1.668,0.904,-1.092,249.817,-246.216,140.991
-1.734,0.858,-1.002,274.170,-325.012,124.756
-1.731,1.643,0.080,342.407,-439.819,116.760
-1.686,1.827,0.378,348.450,-460.693,85.083
-1.630,1.889,0.792,319.092,-471.863,-7.080
-1.645,1.617,0.803,273.499,-441.345,-78.003
-1.731,0.742,0.211,257.202,-431.335,-92.102
-2.069,0.611,0.057,251.465,-472.961,-80.811
-2.323,0.526,0.376,288.208,-549.255,-90.027
-2.705,0.603,1.091,313.416,-573.120,-94.238
-2.748,1.655,2.181,352.234,-647.217,-119.812
-2.744,2.317,4.000,358.704,-588.745,-247.009
-2.371,1.822,3.178,377.991,-432.556,-360.474
-2.269,0.134,0.981,397.461,-281.311,-533.447
-2.200,-1.514,1.202,443.542,-364.746,-633.423
-1.901,-2.295,1.702,449.341,-374.207,-694.946
-1.063,-4.000,3.212,326.904,-323.547,-730.896
-0.215,-2.866,2.131,279.541,-133.423,63.965
-0.078,0.224,1.811,203.979,-90.393,266.479
-0.043,2.165,1.948,39.001,-49.072,351.624
0.076,3.639,0.611,45.349,44.983,128.540
-0.090,1.790,0.508,32.227,22.278,-81.848
-0.137,0.124,0.789,68.176,-15.564,-179.565
-0.063,-0.829,0.538,78.613,-11.108,-138.550
-0.008,-0.603,1.313,41.321,-55.481,-44.739
-0.000,-0.219,1.521,26.672,-41.748,14.648
-0.018,0.439,0.807,18.921,19.653,20.447
-0.011,0.589,0.713,21.301,-7.141,7.690
-0.002,0.614,1.099,22.583,-11.719,-2.136
-0.012,0.478,0.869,21.729,9.033,-17.822
-0.014,0.266,0.784,14.771,8.789,-23.987
-0.014,0.081,0.951,0.854,-2.747,-13.977
-0.017,0.247,0.968,-3.906,4.883,1.892
-0.016,0.322,0.850,-0.488,10.193,4.028
-0.020,0.427,0.844,6.531,2.441,2.197
-0.002,0.465,0.949,15.747,-2.563,-4.639
-0.015,0.466,0.968,18.127,-1.831,-9.888
-0.021,0.246,0.883,15.686,3.174,-17.883
-0.024,0.193,0.873,8.301,1.465,-10.315
-0.018,0.198,0.881,3.540,1.221,-5.981
-0.015,0.258,0.854,3.845,1.526,-1.099
-0.013,0.369,0.816,12.817,-1.404,-0.488
-0.011,0.423,0.834,15.076,-4.089,-1.709
-0.017,0.415,0.815,19.287,-6.226,-10.376
-0.011,0.267,0.886,20.203,-13.123,-17.761
-0.010,0.207,0.971,17.578,-15.442,-17.334
-0.011,0.222,0.994,11.169,-8.606,-10.803
-0.012,0.188,0.966,7.751,-3.967,-7.568
-0.015,0.214,0.930,8.484,-1.831,-4.578
-0.031,0.263,0.855,8.972,-0.305,-1.831
-0.023,0.273,0.887,6.287,-4.333,-1.160
-0.002,0.342,0.936,7.874,-6.287,-0.793
0.001,0.352,0.974,8.484,-6.897,-2.380

-0.211,-0.555,2.051,123.047,123.840,-92.957
-0.273,-0.650,2.001,121.155,138.733,-85.144
-0.374,-0.723,1.973,109.070,160.767,-62.134
-0.487,-0.933,2.117,88.806,178.772,-40.161
-0.541,-0.956,2.182,85.510,191.284,-20.813
-0.716,-0.868,2.334,97.534,218.750,26.672
-0.849,-0.796,2.335,76.965,267.456,67.749
-1.027,-0.779,2.136,60.364,289.917,82.581
-1.152,-0.650,2.137,36.621,323.669,118.286
-1.237,-0.494,2.169,28.198,343.262,135.803
-1.392,-0.162,1.936,20.508,395.874,159.973
-1.481,-0.056,1.663,14.832,446.045,162.048
-1.506,-0.087,0.999,-13.123,458.069,161.377
-1.477,-0.115,0.825,-20.508,448.242,168.457
-1.403,0.003,0.913,-19.592,440.857,176.514
-1.463,0.026,0.674,-23.743,464.478,174.072
-1.437,0.015,0.473,-20.752,473.206,172.241
-1.435,0.017,0.410,-15.198,462.524,182.251
-1.512,0.053,0.535,-39.856,462.585,190.857
-1.746,0.036,0.115,-100.281,515.991,200.317
-1.794,0.292,-0.538,-112.976,538.635,200.684
-1.715,0.344,-0.756,-103.638,525.513,182.373
-1.456,0.260,-0.826,-57.312,447.083,128.174
-1.321,0.074,-0.578,-41.992,401.611,103.210
-1.262,0.030,-0.243,-14.038,364.929,83.496
-1.342,0.080,-0.483,17.212,363.647,75.378
-1.327,0.011,-0.630,15.808,357.178,70.740
-1.329,0.249,-0.638,30.518,320.984,76.904
-1.313,0.370,-0.564,40.771,304.382,75.378
-1.402,0.565,-0.489,51.453,289.856,54.443
-1.442,0.630,-0.631,90.942,287.903,21.912
-1.599,0.622,-1.055,103.699,280.457,4.944
-1.669,0.472,-1.557,127.380,247.620,-24.414
-1.655,0.416,-1.736,142.395,213.623,-28.503
-1.519,0.419,-1.536,179.382,110.657,-44.067
-1.463,0.308,-1.229,194.397,66.406,-54.321
-1.353,-0.169,-0.715,209.473,27.039,-45.959
-1.306,-0.171,-0.400,203.918,26.062,10.498
-1.362,0.059,-0.437,206.604,35.645,42.175
-1.489,0.366,-0.911,215.210,46.082,76.172
-1.562,0.375,-1.135,223.389,31.860,82.275
-1.594,0.351,-1.313,243.835,-26.489,94.788
-1.585,0.415,-1.082,256.592,-71.167,105.347
-1.598,0.613,-0.737,276.611,-120.483,128.357
-1.699,0.636,-1.082,301.514,-139.648,138.123
-1.816,0.668,-1.241,325.867,-167.114,139.954
-1.970,0.682,-1.257,374.390,-250.366,126.099
-2.032,0.737,-1.051,379.761,-300.720,117.798
-1.972,1.441,-0.398,393.005,-397.644,110.657
-1.877,2.178,0.426,399.536,-453.674,55.908
-1.878,2.144,0.464,394.653,-447.144,-7.629
-2.062,1.293,0.011,385.010,-437.866,-121.704
-2.181,0.715,-0.102,366.028,-451.843,-156.433
-2.515,0.244,0.307,343.445,-531.494,-164.001
-2.641,0.163,0.807,344.788,-613.342,-163.513
-2.729,0.980,2.096,359.131,-648.865,-158.752
-2.423,2.543,4.000,335.937,-665.283,-194.702
-2.216,2.731,4.000,342.163,-532.349,-273.560
-1.948,0.891,1.096,312.988,-181.458,-487.671
-1.994,0.435,0.082,314.941,-287.842,-551.025
-2.127,-0.925,0.934,331.604,-389.526,-591.187
-1.550,-2.392,2.194,354.004,-380.859,-676.453
-1.330,-3.923,2.337,336.975,-315.552,-710.632
-0.211,-3.806,1.730,236.572,-171.509,-188.293
0.020,-1.021,1.325,233.276,-131.714,173.340
0.183,1.508,1.531,120.056,-124.329,237.122
0.123,1.953,1.445,93.445,-55.176,87.646
0.063,1.745,0.865,86.121,-36.255,-11.536
-0.012,0.331,0.621,83.740,-43.518,-124.939
-0.080,-0.020,0.589,89.539,-54.565,-122.437
-0.026,-0.407,1.163,80.200,-91.064,-91.003
-0.019,-0.413,1.397,75.134,-86.975,-66.589
0.037,0.211,1.296,65.918,-43.945,-11.108
0.039,0.503,1.208,57.739,-20.264,-6.958
0.015,0.595,0.986,39.856,-12.085,-15.015
-0.021,0.531,0.851,44.189,-11.719,-28.931
-0.019,0.314,0.911,40.649,-15.076,-37.659
-0.023,0.058,0.905,38.086,-9.949,-32.593
-0.009,0.003,0.908,33.142,-9.033,-23.499
-0.009,-0.024,1.122,12.573,-10.193,-1.587
-0.007,0.092,1.123,3.052,-1.648,11.353
0.003,0.484,0.991,-3.662,12.878,25.940
-0.001,0.647,0.922,-2.747,30.762,13.794
-0.031,0.711,0.681,8.606,15.015,0.000
-0.026,0.597,0.661,11.536,-4.211,-23.926
-0.022,0.250,0.925,9.766,-10.559,-27.954
-0.013,0.053,0.977,4.822,-4.272,-20.203
-0.017,-0.026,1.002,-0.244,-1.282,-12.573
-0.012,0.058,0.939,-8.545,9.705,9.094
-0.011,0.424,0.794,-5.127,11.597,23.560
-0.007,0.609,0.835,-2.319,5.981,21.851
-0.025,0.607,0.819,2.014,5.920,-2.258
-0.029,0.457,0.717,3.418,7.507,-14.343
-0.027,0.243,0.815,5.920,-7.141,-20.691
-0.005,0.098,0.932,4.639,-8.362,-15.137
-0.002,0.096,0.943,2.930,-5.981,-8.423
0.015,0.232,1.004,2.441,-4.761,2.869
0.005,0.295,1.021,1.892,-1.892,4.211
0.002,0.348,0.836,4.272,6.531,2.991
-0.010,0.355,0.818,5.615,-1.648,-0.183

-0.043,-0.197,2.341,127.563,82.520,-56.641
-0.083,-0.198,2.271,129.517,116.821,-49.988
-0.151,-0.229,2.191,134.399,127.014,-46.509
-0.271,-0.118,2.147,158.386,145.081,-40.771
-0.304,-0.161,2.058,172.363,153.931,-42.603
-0.411,-0.360,2.032,189.209,159.790,-40.833
-0.496,-0.467,2.186,177.917,176.697,-23.254
-0.552,-0.418,2.241,166.138,194.031,-9.705
-0.723,-0.314,2.034,114.380,243.774,7.690
-0.801,-0.439,1.954,78.125,261.230,8.362
-0.932,-0.697,1.914,13.672,289.673,21.179
-1.057,-0.504,1.993,19.592,317.871,63.477
-1.147,-0.309,1.963,30.334,336.670,83.191
-1.288,-0.080,1.972,11.169,375.366,96.313
-1.394,-0.129,1.951,-10.254,400.940,94.116
-1.570,-0.264,1.609,-22.705,461.670,97.595
-1.649,-0.161,1.458,-19.836,496.826,117.249
-1.781,0.042,0.972,-12.695,508.301,119.629
-1.808,-0.073,0.493,-0.061,505.249,112.183
-1.821,-0.220,0.356,11.169,493.530,119.812
-1.812,-0.343,0.630,4.211,467.834,138.794
-2.096,0.161,0.567,-36.743,510.437,175.842
-2.202,0.388,-0.018,-33.203,550.354,174.194
-2.241,0.792,-1.155,26.672,567.200,140.625
-1.893,0.762,-2.067,90.759,463.379,74.463
-1.521,0.281,-1.832,90.820,362.305,34.912
-1.189,-0.372,0.238,55.664,179.138,29.907
-1.323,-0.117,0.684,62.012,276.001,80.811
-1.349,0.151,0.079,69.885,345.032,99.365
-1.340,0.777,-0.206,59.692,344.299,113.586
-1.326,0.914,-0.117,57.739,331.482,88.013
-1.516,0.655,-0.392,59.143,349.243,57.800
-1.619,0.061,-1.080,70.129,359.375,33.813
-1.625,0.271,-1.293,82.214,331.421,48.950
-1.678,1.007,-1.316,114.807,257.507,42.847
-1.762,0.908,-2.054,188.599,221.863,-34.973
-1.892,0.459,-2.480,220.459,179.871,-76.843
-1.686,-0.467,-1.937,233.765,-3.540,-86.670
-1.555,-0.341,-0.528,232.788,-100.281,-15.015
-1.456,-0.214,-0.539,244.324,-71.533,20.447
-1.584,0.675,-1.169,263.550,-47.363,89.050
-1.642,0.596,-1.644,281.006,-105.225,81.787
-1.651,0.523,-1.470,286.743,-210.693,98.938
-1.525,0.678,-0.660,289.795,-248.657,114.014
-1.312,0.693,0.180,258.484,-271.912,139.343
-1.273,0.626,0.235,258.118,-208.862,165.283
-1.350,0.562,-0.399,270.203,-190.735,186.523
-1.364,1.439,-0.427,318.054,-239.441,222.778
-1.377,1.942,-0.244,353.516,-305.359,202.026
-1.320,2.409,-0.046,355.591,-327.637,169.739
-1.374,2.117,-0.002,333.374,-360.962,73.608
-1.422,0.600,-0.243,321.533,-383.423,0.549
-1.646,0.283,-0.088,322.998,-416.260,16.296
-1.552,1.501,1.188,329.346,-507.812,94.666
-1.540,2.656,2.232,320.435,-571.838,136.780
-1.301,4.000,3.472,297.668,-452.454,31.250
-1.021,2.028,1.015,216.248,-203.918,-222.839
-1.113,1.317,0.120,186.279,-271.362,-251.709
-1.269,1.603,0.635,205.627,-350.220,-248.718
-1.450,1.159,1.358,298.767,-371.826,-339.233
-1.380,-0.044,0.996,364.014,-304.199,-424.072
-1.280,-0.419,1.065,365.112,-294.617,-425.598
-1.039,-0.450,1.490,320.496,-259.827,-372.559
-0.819,-0.093,0.962,271.851,-169.434,-324.707
-0.828,0.022,0.560,269.653,-144.897,-341.370
-0.708,-0.793,0.379,273.621,-164.429,-363.464
-0.348,-1.617,1.302,254.272,-228.271,-366.089
-0.123,-2.192,2.779,201.355,-203.369,-281.799
-0.017,-2.138,2.525,161.072,-99.365,-195.251
0.007,-0.408,1.057,100.891,36.804,42.419
-0.052,1.031,0.569,62.866,22.034,120.361
-0.044,1.410,0.622,67.383,2.869,108.765
-0.148,1.289,0.462,69.702,0.000,-39.001
-0.148,0.880,0.273,67.261,-12.878,-108.459
-0.093,0.096,0.349,65.063,-37.537,-116.699
-0.025,-0.361,1.033,51.208,-73.853,-98.450
-0.001,-0.479,1.229,45.410,-64.209,-78.491
0.035,-0.335,1.045,40.466,-18.005,-24.109
0.052,0.153,0.934,35.461,-9.399,14.709
0.069,0.408,0.953,27.588,-9.949,19.897
0.058,0.582,1.048,8.484,-8.606,8.972
0.043,0.272,1.020,-4.883,1.831,-12.512
0.038,0.171,0.971,-8.789,5.310,-12.817
0.024,0.118,0.973,-8.118,4.272,-3.967
0.021,0.062,0.916,-7.507,9.094,3.662
0.039,0.181,0.804,-2.869,5.066,12.817
0.063,0.472,0.940,8.606,-8.789,15.503
0.064,0.472,1.017,11.169,-10.864,7.446
0.062,0.443,1.031,10.315,-4.395,-3.906
0.051,0.402,0.919,1.587,2.502,-13.306
0.044,0.203,0.882,-1.526,2.197,-14.832
0.049,0.189,0.995,0.000,-5.310,-8.545
0.046,0.161,0.984,0.854,1.587,-5.737
0.037,0.155,0.919,2.075,4.761,-3.845
0.032,0.163,0.869,3.601,1.709,1.526
0.036,0.229,0.891,3.662,-1.465,5.310
0.044,0.381,0.985,5.615,-5.432,5.493
0.037,0.380,0.922,4.822,0.427,-3.662
0.035,0.335,0.867,2.380,1.404,-8.240
0.040,0.200,0.915,0.122,-5.676,-12.695

0.243,0.254,2.293,66.833,22.949,-80.444
0.231,0.286,2.222,75.439,48.279,-84.656
0.138,0.039,1.980,95.947,82.092,-105.591
0.117,-0.190,1.989,101.440,85.999,-112.488
0.060,-0.472,2.420,111.694,84.412,-109.253
0.016,-0.668,2.585,121.582,117.371,-100.159
-0.104,-0.916,2.620,129.761,139.832,-84.106
-0.258,-0.692,2.661,135.986,176.208,-25.940
-0.354,-0.591,2.635,128.662,197.449,-7.996
-0.546,-0.530,2.647,113.831,229.309,14.587
-0.800,-0.689,2.952,81.787,257.507,38.879
-0.994,-0.733,2.969,57.068,288.269,57.007
-1.264,-0.497,2.567,49.438,355.347,104.553
-1.366,-0.275,2.507,42.419,388.367,136.841
-1.569,0.188,2.310,22.949,416.992,139.099
-1.713,0.019,1.661,-10.986,474.854,121.765
-1.774,-0.076,1.336,-15.686,491.638,121.094
-1.870,-0.108,0.915,-9.277,500.854,138.062
-1.896,-0.084,0.600,-48.218,511.169,149.963
-1.898,-0.044,0.493,-61.646,508.179,152.222
-1.852,0.241,0.277,-36.194,495.972,145.142
-1.858,0.164,0.168,-26.672,480.469,112.244
-1.932,-0.114,0.050,-26.489,478.638,109.070
-1.923,0.104,-0.517,-7.751,483.459,113.403
-1.778,0.073,-0.568,-11.841,426.514,94.971
-1.701,0.081,-0.362,-11.475,396.973,88.684
-1.586,0.131,-0.054,-5.676,380.066,77.454
-1.575,0.253,0.025,5.432,379.578,71.106
-1.608,0.146,-0.059,5.615,384.705,56.641
-1.679,-0.192,-0.233,3.967,381.287,46.692
-1.741,-0.135,-0.423,16.174,363.037,65.186
-1.844,0.180,-0.780,40.710,360.291,72.083
-1.948,0.874,-1.307,54.443,340.820,81.055
-1.945,1.060,-1.757,77.271,283.264,22.888
-1.992,0.492,-2.197,130.493,211.487,-28.992
-1.949,-0.465,-2.014,180.542,93.750,-61.462
-1.851,-0.439,-1.964,205.688,51.636,-38.879
-1.593,-0.220,-1.276,230.835,-42.786,-2.014
-1.363,-0.123,-0.826,240.601,-72.571,27.527
-1.219,-0.035,-0.775,253.723,-84.351,64.026
-1.152,-0.012,-0.638,252.380,-96.008,83.618
-1.117,0.354,-0.309,237.305,-104.248,135.620
-1.169,0.812,-0.694,234.375,-75.500,170.898
-1.255,0.873,-1.016,254.333,-87.646,172.302
-1.363,0.867,-1.409,265.381,-121.948,169.861
-1.375,0.917,-0.791,285.278,-213.135,161.743
-1.276,0.872,-0.090,295.837,-252.441,161.011
-1.243,1.118,0.068,297.180,-252.686,172.974
-1.065,2.078,0.149,282.654,-246.582,190.247
-1.054,2.536,0.164,267.517,-247.925,197.266
-1.138,2.608,-0.792,259.338,-208.740,88.013
-1.229,1.573,-1.227,255.249,-230.164,4.639
-1.498,0.792,-0.665,276.978,-372.437,-4.517
-1.271,1.992,0.957,299.438,-479.431,30.273
-1.184,2.673,1.881,299.683,-505.066,28.687
-0.850,2.046,1.771,220.642,-350.830,-70.190
-0.781,1.575,0.857,179.382,-278.381,-109.985
-0.994,1.430,0.365,174.438,-310.913,-113.220
-1.168,1.303,0.474,199.646,-343.933,-144.714
-1.303,0.667,0.277,249.634,-350.159,-200.195
-1.350,0.265,0.485,270.691,-369.934,-216.858
-1.289,0.292,1.390,271.240,-388.550,-196.289
-1.251,0.711,1.451,269.836,-312.622,-194.092
-1.085,0.794,0.849,273.499,-297.485,-229.553
-0.826,0.317,1.346,270.752,-332.397,-290.405
-0.509,0.440,2.898,322.937,-406.860,-364.075
-0.392,-1.785,4.000,312.500,-433.838,-433.289
-0.340,-3.402,2.888,235.962,21.362,-422.546
-0.269,-1.226,-0.635,116.455,169.189,57.129
-0.259,0.517,-0.789,84.351,83.740,183.044
-0.163,1.887,0.463,68.237,-114.868,247.986
-0.161,2.249,1.218,67.017,-79.956,104.248
-0.037,2.186,0.896,62.927,-25.574,-32.288
-0.117,0.093,0.616,55.664,-13.550,-165.222
-0.086,-0.426,0.603,63.904,-20.508,-154.663
-0.017,-0.564,1.083,44.617,-40.588,-74.768
-0.002,-0.095,0.988,28.625,-1.099,-4.700
-0.025,0.481,0.487,32.776,12.634,23.804
-0.024,0.804,0.581,33.691,-5.615,26.245
0.004,1.103,0.874,31.616,-20.447,3.357
0.018,1.007,0.869,27.588,-13.916,-16.052
0.007,0.517,0.724,19.958,-6.531,-41.748
0.033,0.227,0.840,15.198,-17.334,-31.860
0.078,0.287,0.990,10.620,-14.587,-8.484
0.067,0.392,1.006,6.348,-8.789,0.793
0.059,0.691,0.859,7.385,2.380,8.545
0.044,0.817,0.887,8.850,-0.244,-0.793
0.027,0.861,0.865,7.263,2.747,-10.376
0.005,0.771,0.706,19.470,3.052,-30.762
0.001,0.622,0.702,27.039,-2.258,-46.143
0.005,0.307,0.781,32.593,-11.475,-45.044
0.023,0.190,0.924,26.611,-14.587,-28.625
0.028,0.205,0.957,14.893,-5.249,-6.531
0.032,0.414,0.919,9.583,0.305,0.916
0.029,0.601,0.779,4.578,5.798,2.197
0.029,0.615,0.769,4.639,-0.793,-7.202
0.025,0.558,0.842,7.080,-2.319,-12.329
0.022,0.461,0.805,10.864,-1.404,-18.127
0.018,0.316,0.855,9.338,-5.066,-18.494
0.017,0.276,0.866,0.793,-2.380,-8.728

0.034,-0.217,2.375,116.760,64.941,-76.233
-0.004,-0.225,2.431,141.785,102.051,-64.026
-0.146,-0.383,2.475,137.390,119.324,-59.082
-0.329,-0.610,2.568,104.431,158.508,-41.260
-0.516,-0.684,2.448,92.773,206.055,-7.568
-0.669,-0.604,2.331,108.398,234.802,30.884
-0.858,-0.420,2.512,98.755,254.883,65.063
-0.968,-0.383,2.448,89.966,278.687,76.294
-1.102,-0.169,2.127,84.106,321.533,101.807
-1.181,0.014,1.781,85.632,347.900,117.249
-1.193,0.016,1.355,79.224,365.784,122.681
-1.179,-0.004,1.191,74.829,368.652,126.465
-1.180,-0.011,0.904,46.265,375.671,137.817
-1.206,0.021,0.818,16.113,377.991,151.428
-1.251,0.183,0.657,-12.024,396.301,152.893
-1.190,0.133,0.518,-15.076,407.104,136.047
-1.207,-0.261,0.591,-33.447,406.494,134.094
-1.456,-0.228,0.716,-91.003,446.777,158.875
-1.752,-0.092,0.177,-107.422,516.541,178.955
-1.798,0.298,-0.381,-110.352,538.574,182.739
-1.696,0.493,-0.689,-69.519,504.395,143.188
-1.699,0.373,-0.657,-75.073,470.215,112.488
-1.693,-0.161,-0.682,-62.683,429.321,60.791
-1.674,-0.542,-0.728,-52.307,401.611,51.086
