accelerometerX,accelerometerY,accelerometerZ,gyroscopeX,gyroscopeY,gyroscopeZ
-1.759,0.850,0.161,5.493,-314.453,-9.094
-1.867,0.766,0.257,11.047,-327.515,-17.334
-2.176,0.803,0.415,8.057,-351.501,-20.142
-2.309,0.887,0.636,5.066,-368.164,-21.606
-2.547,0.604,1.064,-0.916,-385.315,-40.161
-2.629,0.350,1.397,-1.160,-390.808,-41.443
-2.615,0.264,1.661,7.568,-394.958,-38.940
-2.527,0.438,1.693,47.302,-378.235,-29.785
-2.456,0.135,2.020,67.322,-373.474,-44.556
-2.352,0.060,2.255,70.801,-367.371,-36.194
-2.056,0.204,3.241,53.833,-350.281,-27.100
-1.550,0.529,3.678,70.740,-276.794,-30.273
-1.335,0.314,3.364,111.023,-167.664,-59.265
-1.058,-0.115,1.662,105.164,-127.808,-61.707
-1.002,-0.149,1.211,24.536,-130.615,-21.973
-0.952,0.413,1.466,2.014,-156.372,24.109
-0.884,1.099,2.105,29.541,-152.954,17.151
-0.747,0.813,2.385,85.815,-117.126,-29.053
-0.648,0.130,1.944,102.600,-62.683,-56.274
-0.628,-0.166,1.728,80.078,-37.415,-36.438
-0.578,0.011,1.513,67.261,-26.123,-14.526
-0.583,0.437,1.394,49.805,-17.334,6.287
-0.607,0.557,1.214,49.683,-4.211,1.465
-0.594,0.498,1.193,45.532,-1.038,-3.601
-0.578,0.387,1.098,36.560,10.986,-7.568
-0.601,0.304,0.981,22.583,23.804,-3.357
-0.607,0.372,0.867,15.930,29.419,2.258
-0.614,0.573,0.542,7.385,38.452,10.681
-0.626,0.657,0.447,4.761,35.583,10.986
-0.620,0.708,0.391,2.502,25.513,6.531
-0.629,0.736,0.490,1.892,19.165,1.953
-0.635,0.696,0.460,1.099,22.339,-1.221
-0.674,0.578,0.556,-5.249,20.935,-5.615
-0.685,0.568,0.481,-7.080,27.710,-2.258
-0.687,0.592,0.385,-6.409,30.457,-0.061
-0.677,0.636,0.241,-3.906,29.297,3.479
-0.669,0.714,0.261,0.122,20.081,6.470
-0.660,0.714,0.283,2.563,17.273,5.554
-0.645,0.743,0.375,4.456,12.878,3.540
-0.640,0.753,0.408,2.197,14.832,-0.610
-0.648,0.697,0.398,2.747,17.212,-2.686
-0.646,0.633,0.327,4.211,17.944,-4.639
-0.647,0.634,0.297,4.883,16.846,-3.784
-0.643,0.600,0.251,5.066,13.489,-3.235
-0.643,0.564,0.374,2.930,6.470,-1.343
-0.651,0.585,0.435,3.967,5.554,0.244
-0.641,0.614,0.466,5.798,8.057,1.038
-0.643,0.603,0.449,6.897,9.521,0.183
-0.641,0.591,0.352,11.108,9.521,-0.061
-0.632,0.606,0.358,10.864,6.836,0.854
-0.617,0.599,0.481,7.751,2.075,0.366
-0.615,0.597,0.510,7.690,3.540,-0.610
-0.617,0.572,0.545,8.301,5.493,-0.916
-0.626,0.575,0.504,7.996,9.949,-0.732
-0.622,0.606,0.398,9.766,13.123,0.000
-0.626,0.641,0.342,7.751,9.338,-0.244
-0.621,0.612,0.463,4.944,2.747,-2.075
-0.622,0.620,0.491,6.165,4.395,-2.930
-0.620,0.554,0.562,5.005,5.005,-4.700
-0.614,0.479,0.662,1.221,8.423,-3.723
-0.613,0.496,0.615,2.258,18.066,1.526
-0.602,0.566,0.539,1.099,17.883,2.502
-0.595,0.654,0.425,1.831,19.958,2.625
-0.601,0.654,0.331,0.305,15.808,-2.136
-0.602,0.534,0.501,-2.197,8.301,-3.113
-0.591,0.502,0.625,-1.038,9.460,-0.427
-0.575,0.506,0.591,1.404,14.771,2.808
-0.567,0.580,0.506,3.601,16.846,5.615
-0.578,0.651,0.313,3.967,17.822,5.005
-0.582,0.670,0.359,1.099,6.104,2.930
-0.575,0.677,0.424,1.160,5.249,0.916
-0.584,0.604,0.406,2.319,3.662,-2.686
-0.595,0.545,0.516,3.540,-2.869,-1.587
-0.599,0.546,0.551,3.174,-2.808,-0.610
-0.593,0.550,0.545,1.465,0.549,1.404
-0.592,0.552,0.530,-0.183,0.793,3.540
-0.575,0.576,0.543,-0.916,0.000,4.272
-0.581,0.653,0.475,0.732,1.892,4.700
-0.573,0.639,0.551,-0.183,-3.052,0.854
-0.573,0.614,0.569,0.183,-2.380,-0.427
-0.579,0.559,0.576,1.160,-0.061,-1.038
-0.582,0.538,0.592,1.465,0.732,0.061
-0.583,0.565,0.568,1.282,3.357,2.136
-0.583,0.586,0.518,1.404,5.371,3.113
-0.582,0.594,0.537,0.183,3.296,2.625
-0.580,0.628,0.518,1.892,4.517,2.380
-0.586,0.619,0.500,2.136,5.310,1.343
-0.592,0.579,0.525,0.427,2.808,-0.061
-0.588,0.579,0.514,-0.854,2.991,0.610
-0.591,0.578,0.490,-1.099,3.113,0.610
-0.586,0.585,0.542,-0.854,0.183,1.160
-0.582,0.586,0.556,-0.671,0.549,1.343
-0.584,0.587,0.501,0.183,3.601,1.160
-0.588,0.599,0.487,0.854,3.174,1.587
-0.591,0.603,0.528,1.221,0.549,1.038
-0.590,0.591,0.571,1.587,1.038,0.183
-0.590,0.579,0.577,2.197,1.953,-0.244
-0.591,0.557,0.498,3.601,4.883,-0.305
-0.594,0.573,0.461,2.930,3.174,1.160
-0.592,0.593,0.493,2.380,1.038,2.075

-1.537,0.815,0.225,-17.883,-262.634,23.132
-1.575,0.611,0.258,-2.625,-264.587,10.620
-1.776,0.805,0.172,21.301,-271.484,13.184
-2.009,0.749,0.533,26.733,-299.622,2.502
-2.099,0.625,0.756,25.818,-310.181,-2.625
-2.161,0.359,1.332,16.846,-325.562,-2.258
-2.026,0.623,1.997,29.724,-322.571,12.878
-1.929,0.848,2.144,44.861,-304.016,12.390
-1.706,0.866,2.084,88.806,-259.949,-16.418
-1.611,0.447,1.483,119.995,-221.802,-43.579
-1.591,0.336,1.481,104.858,-221.436,-35.339
-1.532,0.531,1.529,83.984,-218.567,-31.128
-1.464,0.690,1.716,38.086,-210.693,-26.428
-1.374,0.661,1.774,16.968,-193.176,-31.006
-1.295,0.702,1.818,21.362,-186.096,-32.715
-1.123,1.010,1.672,62.256,-165.039,-42.053
-1.061,0.133,1.570,83.557,-152.161,-80.322
-0.924,0.413,1.852,75.378,-145.569,-46.692
-0.877,0.565,1.828,66.284,-131.226,-40.222
-0.811,0.674,1.460,56.274,-101.135,-46.448
-0.741,0.454,1.187,57.312,-90.271,-58.960
-0.718,0.141,1.214,52.368,-89.844,-63.293
-0.644,0.203,1.464,38.452,-87.952,-39.795
-0.583,0.622,1.410,34.058,-68.420,-27.161
-0.571,0.578,1.212,35.034,-51.270,-39.368
-0.561,0.562,1.157,38.940,-46.814,-42.542
-0.530,0.411,1.153,46.448,-40.466,-48.767
-0.529,0.289,1.181,45.349,-20.325,-46.692
-0.533,0.194,1.008,37.903,-20.508,-41.077
-0.505,0.296,0.973,25.696,-16.785,-27.161
-0.494,0.278,0.894,23.560,-11.841,-23.926
-0.491,0.292,0.877,16.907,-8.850,-14.771
-0.482,0.450,0.812,15.869,-3.113,-6.714
-0.480,0.498,0.790,16.418,-1.282,-6.348
-0.488,0.537,0.677,16.663,4.150,-8.362
-0.498,0.461,0.661,11.292,5.188,-9.277
-0.500,0.466,0.665,8.972,8.911,-4.761
-0.511,0.493,0.577,5.798,10.620,-2.930
-0.534,0.523,0.510,0.305,12.207,-0.122
-0.537,0.556,0.520,-1.709,11.475,1.587
-0.539,0.636,0.500,-1.770,13.306,2.991
-0.537,0.653,0.382,0.366,13.916,2.258
-0.531,0.668,0.434,1.526,9.399,2.808
-0.530,0.663,0.462,2.502,9.338,2.686
-0.532,0.706,0.474,1.709,9.644,4.089
-0.546,0.720,0.464,1.404,10.376,4.089
-0.548,0.737,0.497,1.831,9.766,2.014
-0.567,0.650,0.403,3.540,13.062,-0.732
-0.563,0.644,0.431,3.906,10.376,-0.061
-0.560,0.669,0.410,4.639,10.803,1.587
-0.559,0.675,0.400,5.188,10.193,2.258
-0.554,0.706,0.361,5.615,8.667,2.747
-0.546,0.717,0.424,5.066,4.822,1.709
-0.547,0.707,0.397,5.493,6.042,0.732
-0.532,0.690,0.465,5.005,3.113,0.061
-0.529,0.668,0.486,6.287,5.432,-0.977
-0.531,0.652,0.507,6.165,5.432,-1.221
-0.546,0.655,0.480,6.165,8.484,-0.549
-0.549,0.637,0.453,3.662,7.812,0.427
-0.548,0.656,0.453,2.075,7.812,2.014
-0.547,0.669,0.429,1.221,7.263,1.526
-0.540,0.660,0.459,1.526,5.493,1.099
-0.538,0.658,0.467,2.075,5.676,1.221
-0.536,0.664,0.487,2.686,5.371,1.404
-0.536,0.663,0.508,2.136,4.944,1.526
-0.536,0.671,0.504,1.526,5.676,1.587
-0.546,0.684,0.455,1.160,7.446,0.793
-0.545,0.662,0.438,1.099,7.385,0.000
-0.540,0.657,0.478,1.160,4.822,0.366
-0.542,0.680,0.440,1.831,4.272,1.221
-0.538,0.699,0.457,1.953,2.747,1.343
-0.541,0.684,0.473,1.343,2.380,-0.061
-0.536,0.631,0.531,-0.549,0.977,-0.427
-0.534,0.637,0.539,-0.977,1.709,0.305
-0.538,0.648,0.474,-1.831,4.822,1.587
-0.537,0.680,0.495,-2.197,3.540,2.380
-0.533,0.693,0.510,-1.831,3.418,1.831
-0.542,0.689,0.428,0.000,6.226,0.000
-0.539,0.662,0.424,-0.549,1.221,0.000
-0.528,0.691,0.499,-1.953,1.526,0.305
-0.534,0.672,0.462,-1.465,2.747,-0.854
-0.532,0.654,0.488,-1.709,1.038,-1.038
-0.533,0.648,0.485,-2.625,1.282,-0.671
-0.528,0.635,0.536,-2.869,1.404,-0.305
-0.531,0.638,0.479,-2.075,3.967,-0.061
-0.530,0.659,0.480,-2.869,1.526,0.671
-0.526,0.674,0.512,-2.991,0.610,0.305
-0.527,0.668,0.523,-0.793,2.197,-0.427
-0.522,0.650,0.499,0.732,4.089,-1.038
-0.525,0.642,0.450,0.732,5.676,-0.854
-0.524,0.661,0.474,-0.122,2.563,-0.122
-0.529,0.659,0.476,0.122,1.892,-0.427
-0.526,0.635,0.501,-0.610,1.099,-0.793
-0.523,0.644,0.498,-1.404,1.953,0.244
-0.527,0.649,0.499,-1.587,1.587,0.244
-0.523,0.657,0.503,-1.343,2.563,0.366
-0.524,0.652,0.478,-1.709,2.075,0.427
-0.521,0.660,0.486,-2.319,1.587,0.793
-0.522,0.663,0.484,-1.892,1.221,1.160
-0.518,0.691,0.506,-2.014,0.549,1.587

-1.394,0.998,0.476,11.658,-206.970,2.869
-1.432,1.034,0.592,18.311,-209.473,-19.775
-1.456,0.819,0.756,31.799,-208.191,-25.330
-1.420,0.526,0.935,36.926,-205.139,-36.255
-1.410,0.403,0.900,36.072,-198.303,-35.645
-1.405,0.552,0.872,28.809,-193.848,-21.545
-1.386,0.855,1.062,28.503,-193.665,-19.836
-1.360,0.899,1.087,38.696,-187.561,-40.344
-1.334,0.480,1.031,70.190,-176.636,-53.284
-1.282,0.345,0.910,81.909,-171.021,-48.157
-1.255,0.371,1.175,62.195,-176.086,-39.124
-1.218,0.424,1.251,52.429,-170.898,-34.119
-1.153,0.587,1.428,46.631,-161.377,-30.212
-1.124,0.464,1.271,51.025,-138.123,-39.673
-1.057,0.422,1.167,55.176,-131.592,-41.565
-1.013,0.329,1.117,64.209,-126.953,-42.236
-0.984,0.438,1.066,76.355,-124.023,-40.283
-0.920,0.332,1.151,70.435,-122.925,-46.021
-0.836,0.304,1.093,64.514,-112.122,-44.556
-0.778,0.312,0.959,49.805,-108.643,-45.288
-0.712,0.096,1.168,54.016,-110.962,-40.649
-0.683,0.412,1.247,40.161,-99.976,-21.179
-0.660,0.702,1.276,19.714,-87.219,-15.869
-0.637,0.698,1.286,23.010,-80.078,-21.973
-0.628,0.580,1.167,46.570,-62.866,-35.095
-0.596,0.469,0.947,64.270,-51.941,-39.429
-0.579,0.305,0.909,60.852,-49.866,-40.039
-0.537,0.208,1.034,37.109,-50.354,-25.452
-0.526,0.567,1.039,19.714,-37.537,-7.019
-0.540,0.744,0.959,20.142,-28.259,-10.376
-0.541,0.740,0.900,22.034,-23.621,-15.808
-0.527,0.612,0.742,27.588,-16.235,-24.780
-0.516,0.463,0.733,24.963,-14.648,-23.743
-0.530,0.562,0.734,19.287,-11.475,-15.198
-0.541,0.584,0.699,16.846,-8.789,-13.733
-0.547,0.625,0.671,13.611,-6.348,-11.719
-0.540,0.641,0.607,14.282,-2.075,-12.207
-0.543,0.626,0.568,16.052,-1.038,-13.123
-0.549,0.581,0.575,16.174,-1.038,-12.878
-0.556,0.573,0.526,14.404,1.099,-10.437
-0.555,0.566,0.507,12.512,1.709,-9.155
-0.539,0.589,0.575,9.155,0.916,-5.798
-0.537,0.667,0.488,9.338,5.432,-3.967
-0.538,0.659,0.438,10.437,5.859,-4.700
-0.540,0.652,0.469,10.559,3.296,-4.456
-0.534,0.681,0.499,10.864,3.662,-4.089
-0.537,0.638,0.513,10.864,4.517,-5.615
-0.548,0.631,0.487,9.766,7.385,-4.333
-0.551,0.630,0.456,5.310,8.728,-2.625
-0.555,0.634,0.393,2.441,9.949,-1.526
-0.549,0.648,0.449,0.732,5.188,-0.122
-0.551,0.675,0.433,3.113,7.141,0.122
-0.545,0.676,0.397,4.639,7.690,-0.244
-0.541,0.679,0.458,5.127,4.639,-0.610
-0.540,0.689,0.482,4.639,6.104,-0.793
-0.548,0.679,0.445,4.639,7.996,-1.465
-0.554,0.619,0.415,4.456,7.324,-1.831
-0.559,0.631,0.417,2.991,6.897,0.183
-0.556,0.650,0.436,1.770,6.104,1.160
-0.554,0.679,0.415,0.916,6.836,1.526
-0.552,0.674,0.400,1.404,5.859,0.793
-0.548,0.693,0.418,1.953,4.944,0.916
-0.547,0.690,0.428,3.418,5.127,0.000
-0.547,0.684,0.415,4.578,5.066,-0.305
-0.551,0.654,0.432,3.662,3.906,-0.244
-0.547,0.667,0.456,1.526,4.211,1.343
-0.547,0.677,0.447,0.244,5.188,1.770
-0.550,0.711,0.401,-0.671,6.287,2.014
-0.551,0.694,0.401,-1.526,3.784,0.610
-0.547,0.692,0.439,-1.404,2.625,0.427
-0.545,0.674,0.460,-1.038,3.662,0.000
-0.548,0.692,0.431,-0.854,4.150,0.427
-0.550,0.704,0.419,-1.160,3.967,0.610
-0.557,0.690,0.399,-2.075,3.662,-0.122
-0.552,0.644,0.416,-2.991,1.526,0.000
-0.547,0.666,0.450,-3.296,0.488,1.160
-0.549,0.700,0.434,-1.709,2.197,1.587
-0.548,0.706,0.432,-0.977,1.770,0.549
-0.546,0.703,0.418,-0.427,1.953,0.183
-0.540,0.691,0.446,1.038,1.221,-0.732
-0.545,0.658,0.427,1.465,1.831,-0.977
-0.547,0.668,0.452,0.916,0.732,-0.305
-0.547,0.670,0.432,0.366,1.648,-0.122
-0.551,0.676,0.421,0.427,0.793,0.061
-0.542,0.701,0.433,0.732,-0.061,-0.061
-0.544,0.669,0.396,2.075,0.000,-1.160
-0.543,0.674,0.467,1.953,-2.808,-0.549
-0.536,0.682,0.486,1.770,-2.136,-0.549
-0.539,0.662,0.489,1.282,-0.183,-1.038
-0.537,0.657,0.466,0.427,1.831,-0.488
-0.545,0.675,0.404,0.549,3.174,0.122
-0.542,0.710,0.423,0.122,0.061,0.244
-0.542,0.685,0.405,0.183,-0.244,-1.038
-0.542,0.685,0.442,0.854,-1.831,-0.671
-0.542,0.680,0.471,1.099,-1.404,-1.465
-0.542,0.646,0.444,1.099,0.061,-2.197
-0.537,0.661,0.472,0.305,-1.221,-0.061
-0.533,0.703,0.468,0.427,-0.122,0.305
-0.538,0.706,0.405,1.404,1.465,-0.122
-0.528,0.701,0.469,1.587,-2.258,-1.160

-0.936,0.949,0.859,-16.479,-170.044,-9.644
-0.954,0.966,0.951,-8.606,-167.664,-23.315
-0.971,0.835,1.006,8.179,-163.330,-32.227
-0.970,0.621,0.906,13.123,-154.663,-40.527
-0.974,0.502,0.808,0.854,-151.306,-39.551
-0.937,0.310,0.744,-13.428,-153.625,-36.621
-0.943,0.307,0.632,-44.617,-154.053,-17.334
-0.983,0.784,0.889,-42.236,-162.354,1.343
-1.033,0.982,0.781,10.925,-157.593,-10.132
-1.072,1.059,0.914,47.546,-161.682,-26.489
-1.057,0.499,0.774,107.483,-153.442,-60.852
-1.024,0.272,0.864,108.215,-156.128,-57.312
-0.965,0.123,1.065,84.778,-157.593,-52.185
-0.952,0.635,0.955,41.260,-141.479,-26.306
-0.979,0.732,0.870,28.198,-137.573,-27.588
-1.001,0.836,0.816,27.588,-138.062,-37.537
-1.004,0.766,0.800,47.607,-139.526,-52.124
-0.970,0.414,0.899,54.871,-141.541,-59.448
-0.905,0.058,1.115,39.551,-140.137,-49.377
-0.877,0.472,1.021,-5.188,-128.479,-18.799
-0.857,0.619,1.080,-31.006,-128.540,-12.939
-0.836,0.970,1.032,-39.368,-119.080,-11.292
-0.817,0.857,0.917,9.277,-112.854,-35.522
-0.808,0.451,1.060,47.241,-110.474,-48.340
-0.806,0.460,0.919,52.979,-100.830,-42.664
-0.744,0.662,0.860,43.823,-98.816,-35.522
-0.719,0.383,0.933,24.292,-96.008,-38.757
-0.688,0.454,0.950,12.756,-92.407,-22.278
-0.662,0.796,0.917,2.991,-83.618,-19.104
-0.670,0.905,0.877,23.499,-76.416,-29.541
-0.680,0.888,0.810,40.710,-72.327,-37.109
-0.649,0.712,0.724,66.467,-67.322,-51.453
-0.634,0.407,0.773,71.838,-67.200,-57.861
-0.616,0.330,0.714,65.735,-59.265,-44.983
-0.568,0.392,0.799,34.058,-62.744,-37.231
-0.531,0.545,0.846,17.639,-55.420,-27.405
-0.518,0.584,0.884,18.860,-52.917,-27.039
-0.496,0.613,0.878,29.602,-45.715,-29.297
-0.482,0.465,0.943,33.875,-39.368,-33.691
-0.481,0.406,0.907,29.297,-31.128,-27.771
-0.466,0.469,0.932,28.076,-29.541,-24.170
-0.461,0.470,0.895,28.870,-21.667,-22.034
-0.442,0.441,0.865,27.527,-15.808,-19.043
-0.443,0.425,0.849,27.161,-12.878,-14.221
-0.433,0.478,0.825,23.865,-8.057,-10.681
-0.429,0.562,0.797,13.428,-3.052,-6.470
-0.444,0.641,0.744,6.165,1.587,-5.249
-0.454,0.614,0.718,6.348,3.479,-6.531
-0.483,0.626,0.580,6.226,8.301,-5.493
-0.484,0.645,0.565,5.859,9.338,-4.150
-0.489,0.643,0.453,5.432,9.033,-3.479
-0.477,0.653,0.508,1.038,4.883,-0.793
-0.481,0.707,0.500,-1.343,7.141,0.854
-0.486,0.734,0.487,-0.977,7.996,0.916
-0.485,0.778,0.457,2.930,8.972,-0.793
-0.485,0.701,0.410,3.906,10.071,-4.211
-0.487,0.666,0.418,4.517,9.338,-4.150
-0.484,0.685,0.431,8.789,9.033,-1.587
-0.492,0.721,0.385,12.146,9.644,-0.977
-0.493,0.729,0.393,12.573,8.362,-0.916
-0.483,0.738,0.417,11.841,7.446,-1.953
-0.481,0.692,0.391,10.437,8.362,-3.235
-0.484,0.665,0.395,9.155,7.263,-2.563
-0.477,0.687,0.441,5.066,5.249,0.122
-0.490,0.699,0.385,1.709,7.141,0.977
-0.491,0.695,0.385,0.488,5.676,1.282
-0.488,0.731,0.436,-0.793,3.235,2.747
-0.486,0.753,0.417,-0.061,4.272,1.709
-0.483,0.729,0.419,-0.183,4.150,0.488
-0.477,0.714,0.455,-0.671,3.784,0.122
-0.484,0.703,0.443,-1.343,4.211,0.427
-0.482,0.701,0.466,-1.953,3.601,0.671
-0.486,0.723,0.456,0.488,4.639,0.793
-0.487,0.711,0.453,2.625,4.700,0.366
-0.486,0.728,0.427,4.700,4.822,0.610
-0.489,0.700,0.451,4.028,3.540,0.244
-0.487,0.705,0.474,3.845,3.296,0.610
-0.489,0.694,0.442,3.845,5.493,0.366
-0.478,0.695,0.439,3.052,4.700,0.854
-0.477,0.708,0.435,2.136,4.272,1.404
-0.482,0.672,0.432,1.221,3.418,1.282
-0.479,0.702,0.479,1.526,2.380,3.296
-0.482,0.713,0.474,1.587,2.869,3.723
-0.481,0.775,0.455,-0.061,2.930,4.639
-0.479,0.764,0.458,-1.587,3.113,2.441
-0.484,0.760,0.444,-1.160,3.479,1.709
-0.489,0.762,0.422,2.502,3.174,0.427
-0.486,0.739,0.427,5.066,2.563,-0.671
-0.479,0.740,0.469,5.371,1.282,-0.671
-0.477,0.721,0.474,4.639,2.625,-1.160
-0.480,0.705,0.459,2.441,3.784,-0.732
-0.482,0.706,0.438,1.465,4.211,-0.427
-0.477,0.740,0.440,1.465,2.502,0.122
-0.473,0.733,0.495,1.709,2.319,-0.549
-0.469,0.722,0.482,2.380,3.479,-0.854
-0.472,0.713,0.466,2.136,3.723,-1.160
-0.473,0.715,0.483,2.502,4.211,-1.160
-0.481,0.705,0.400,2.869,4.456,-1.160
-0.482,0.709,0.411,1.160,0.305,0.061
-0.473,0.726,0.502,1.099,-1.892,0.305

-1.040,0.745,0.756,13.672,-163.513,-31.616
-1.046,0.649,0.767,16.724,-165.100,-38.635
-1.055,0.634,0.709,18.982,-160.522,-35.217
-1.062,0.623,0.907,18.433,-168.274,-35.400
-1.066,0.742,0.860,22.400,-163.818,-33.813
-1.081,0.789,0.912,38.025,-163.391,-40.405
-1.068,0.556,0.782,47.974,-154.968,-52.063
-1.063,0.461,0.819,43.701,-158.447,-47.791
-1.053,0.605,0.887,41.016,-153.137,-42.969
-1.021,0.641,0.747,38.940,-147.278,-48.096
-1.003,0.549,0.575,37.292,-144.714,-52.429
-1.009,0.237,1.136,15.869,-162.964,-46.936
-0.981,0.789,1.006,-0.061,-139.771,-23.865
-0.979,0.918,1.026,2.014,-137.573,-33.813
-0.960,1.001,0.842,28.259,-131.531,-44.861
-0.943,0.547,1.082,49.561,-138.123,-63.477
-0.898,0.571,1.010,48.096,-126.953,-58.777
-0.845,0.376,1.196,32.715,-126.892,-54.199
-0.785,0.607,1.082,6.714,-111.511,-39.551
-0.774,0.784,1.151,0.427,-105.103,-37.598
-0.760,0.845,1.011,10.193,-96.497,-40.649
-0.721,0.773,1.068,37.903,-96.375,-54.443
-0.666,0.427,1.009,51.208,-87.585,-64.819
-0.648,0.438,1.086,30.457,-80.017,-51.270
-0.606,0.467,1.026,18.555,-72.815,-46.082
-0.574,0.570,1.008,4.028,-65.796,-39.612
-0.561,0.661,0.864,11.841,-56.824,-39.307
-0.545,0.643,0.898,19.470,-57.312,-42.664
-0.508,0.570,0.791,35.767,-49.988,-47.119
-0.483,0.341,0.868,36.560,-49.438,-47.607
-0.458,0.344,0.827,31.128,-43.762,-36.499
-0.432,0.291,0.958,8.850,-42.480,-30.823
-0.432,0.475,0.863,-2.747,-31.921,-17.273
-0.415,0.590,0.890,-0.977,-26.428,-14.648
-0.403,0.642,0.755,5.859,-21.790,-18.494
-0.378,0.508,0.794,15.869,-21.179,-22.095
-0.382,0.470,0.757,24.048,-14.038,-18.433
-0.380,0.488,0.780,26.978,-13.123,-12.207
-0.385,0.564,0.655,21.973,-5.432,-10.376
-0.380,0.633,0.742,12.573,-6.165,-6.531
-0.390,0.668,0.636,12.939,1.343,-6.958
-0.402,0.669,0.639,15.137,1.282,-7.690
-0.419,0.604,0.532,17.700,5.432,-8.545
-0.416,0.609,0.555,17.761,3.296,-4.883
-0.405,0.677,0.451,21.362,6.165,-3.601
-0.391,0.679,0.547,13.855,-0.305,-1.770
-0.390,0.717,0.595,7.141,0.244,-0.244
-0.391,0.744,0.611,5.127,3.723,0.122
-0.401,0.759,0.533,5.310,9.277,-0.488
-0.412,0.724,0.499,3.906,10.803,-1.038
-0.415,0.751,0.473,2.441,10.864,0.244
-0.425,0.754,0.363,4.700,11.047,0.244
-0.423,0.755,0.379,4.456,7.751,0.061
-0.416,0.710,0.409,4.517,5.127,-0.488
-0.411,0.688,0.491,4.639,3.601,0.671
-0.418,0.717,0.479,4.089,5.249,2.136
-0.414,0.804,0.493,5.798,5.615,2.991
-0.413,0.814,0.454,7.874,7.385,-0.610
-0.422,0.746,0.404,12.085,8.118,-1.709
-0.423,0.755,0.404,14.282,6.775,-0.732
-0.425,0.763,0.412,14.709,4.395,-0.854
-0.428,0.758,0.436,11.780,3.418,-1.038
-0.430,0.742,0.436,5.798,4.456,-0.671
-0.423,0.761,0.449,5.920,3.784,-0.183
-0.422,0.774,0.406,7.751,5.798,-0.671
-0.416,0.751,0.435,7.690,2.686,-1.526
-0.413,0.727,0.477,6.653,2.014,-1.709
-0.421,0.734,0.419,4.395,4.700,-0.305
-0.418,0.765,0.476,0.000,2.258,1.221
-0.416,0.778,0.438,0.244,3.845,1.099
-0.419,0.761,0.416,3.479,2.747,-0.244
-0.414,0.729,0.434,4.333,1.953,-0.732
-0.412,0.723,0.521,5.798,1.404,0.488
-0.412,0.736,0.512,6.165,2.808,1.892
-0.412,0.756,0.513,5.188,3.174,2.563
-0.417,0.768,0.418,3.479,6.897,1.648
-0.411,0.771,0.417,-0.122,3.174,2.075
-0.407,0.807,0.472,0.061,1.099,2.625
-0.421,0.761,0.378,5.554,3.174,-0.671
-0.417,0.755,0.457,7.019,-1.038,-0.854
-0.416,0.750,0.489,9.460,-0.244,-0.732
-0.411,0.757,0.474,8.667,-0.549,-0.732
-0.409,0.745,0.436,5.432,0.916,-0.671
-0.406,0.785,0.459,-1.709,-0.549,0.061
-0.412,0.737,0.495,-1.160,-1.465,-1.221
-0.414,0.716,0.496,1.892,-0.671,-0.671
-0.409,0.721,0.530,2.441,-1.709,-0.122
-0.407,0.740,0.496,3.174,0.977,0.244
-0.405,0.762,0.486,4.089,0.671,-0.427
-0.401,0.759,0.487,3.540,0.488,-0.854
-0.396,0.714,0.530,1.404,0.061,-1.892
-0.397,0.702,0.539,0.977,2.014,-0.854
-0.407,0.710,0.470,0.610,2.686,-0.427
-0.401,0.729,0.525,0.549,0.000,0.122
-0.406,0.729,0.474,1.343,1.953,0.244
-0.403,0.710,0.537,1.038,-1.099,0.366
-0.409,0.741,0.466,1.709,2.380,1.282
-0.406,0.745,0.502,2.136,0.610,1.038
-0.403,0.744,0.461,2.686,2.441,0.488
-0.406,0.714,0.444,1.587,2.380,0.061

-1.005,1.152,0.502,-7.690,-178.284,-28.625
-1.048,0.940,0.687,-13.855,-179.382,-43.396
-1.039,0.729,0.977,-22.949,-174.255,-47.302
-1.033,0.591,0.642,-16.602,-155.762,-45.776
-0.985,0.433,0.858,-10.559,-169.250,-40.894
-0.981,0.563,0.875,-12.573,-166.992,-32.227
-1.009,0.891,0.814,-16.296,-161.804,-25.269
-1.043,0.830,0.824,-10.010,-159.302,-38.391
-1.049,0.649,0.762,6.348,-158.936,-48.157
-0.992,0.506,0.743,16.052,-159.851,-51.147
-0.947,0.237,1.037,22.644,-164.978,-45.105
-0.920,0.758,0.938,33.875,-153.748,-27.161
-0.919,0.871,0.891,39.612,-151.489,-32.410
-0.945,0.799,0.798,57.983,-148.621,-50.964
-0.924,0.518,0.730,70.801,-148.499,-65.796
-0.917,0.125,0.871,64.758,-151.428,-70.984
-0.881,0.440,0.952,44.434,-146.301,-42.053
-0.880,0.740,0.917,30.151,-138.184,-37.354
-0.894,0.848,0.842,31.982,-134.644,-41.382
-0.895,0.562,0.958,43.030,-136.230,-57.922
-0.827,0.504,0.858,51.880,-129.089,-57.983
-0.802,0.281,1.095,36.743,-129.150,-55.054
-0.788,0.406,1.129,23.865,-123.291,-44.556
-0.769,0.736,1.040,3.967,-111.206,-32.898
-0.763,0.904,1.010,16.235,-105.835,-40.833
-0.747,0.746,0.851,45.959,-97.168,-58.472
-0.736,0.662,0.749,57.129,-95.581,-63.782
-0.686,0.428,0.709,64.880,-97.839,-69.336
-0.637,0.127,0.936,33.813,-101.746,-60.059
-0.570,0.517,1.008,-3.906,-90.759,-30.273
-0.581,0.749,0.993,-10.132,-85.876,-24.719
-0.603,0.783,0.889,4.150,-77.454,-36.194
-0.610,0.723,0.755,23.987,-75.562,-46.143
-0.579,0.669,0.864,30.884,-73.181,-54.993
-0.532,0.392,0.764,40.222,-68.970,-58.594
-0.488,0.106,1.141,7.080,-69.946,-46.387
-0.469,0.394,1.111,-14.099,-51.086,-19.287
-0.449,0.589,1.106,-13.428,-46.387,-12.817
-0.456,0.726,0.861,-0.916,-31.921,-17.456
-0.457,0.668,0.891,13.916,-31.677,-26.123
-0.451,0.509,0.798,25.940,-23.987,-30.151
-0.431,0.465,0.818,29.602,-24.109,-25.940
-0.399,0.407,0.824,27.161,-19.653,-19.653
-0.395,0.571,0.887,21.667,-15.930,-9.094
-0.391,0.712,0.811,20.081,-7.019,-6.470
-0.396,0.768,0.779,23.071,-4.517,-7.935
-0.409,0.691,0.688,28.320,0.244,-14.343
-0.428,0.538,0.570,26.245,3.418,-14.221
-0.416,0.546,0.612,3.296,2.502,-6.042
-0.424,0.565,0.558,3.967,5.371,-3.357
-0.406,0.642,0.556,0.061,4.883,1.282
-0.398,0.709,0.510,1.709,5.005,3.662
-0.392,0.777,0.518,5.371,5.737,1.587
-0.399,0.733,0.445,8.423,7.385,-0.488
-0.398,0.766,0.497,8.606,5.127,0.183
-0.412,0.764,0.470,5.981,8.301,-0.549
-0.418,0.737,0.443,0.671,8.972,-0.793
-0.423,0.697,0.436,-0.793,8.972,-0.366
-0.428,0.722,0.425,-0.427,8.484,0.854
-0.425,0.724,0.392,0.732,7.080,1.465
-0.426,0.774,0.392,5.798,4.822,2.197
-0.420,0.762,0.424,8.362,3.601,0.793
-0.424,0.755,0.419,10.498,4.517,0.183
-0.425,0.760,0.443,9.033,3.906,0.183
-0.426,0.736,0.405,1.831,6.042,0.427
-0.425,0.727,0.392,-0.305,4.761,0.610
-0.422,0.713,0.393,-0.122,3.845,0.793
-0.409,0.750,0.424,-2.075,1.648,3.357
-0.403,0.787,0.502,0.488,1.282,3.235
-0.406,0.819,0.470,3.601,3.418,2.625
-0.422,0.773,0.426,6.165,4.028,-0.671
-0.429,0.745,0.418,4.395,4.028,-0.793
-0.433,0.725,0.410,3.662,4.028,-0.549
-0.427,0.726,0.434,1.221,2.686,1.221
-0.417,0.710,0.421,0.977,1.770,2.441
-0.411,0.736,0.476,0.916,-0.366,3.723
-0.406,0.789,0.477,2.075,1.343,3.906
-0.407,0.795,0.483,2.625,1.709,2.869
-0.410,0.793,0.495,3.845,2.258,0.488
-0.411,0.763,0.411,3.601,4.211,-0.977
-0.415,0.709,0.433,2.197,3.357,-0.549
-0.419,0.721,0.484,1.282,2.014,1.404
-0.413,0.746,0.427,1.038,3.479,2.502
-0.417,0.797,0.459,0.549,0.671,2.197
-0.408,0.786,0.502,1.648,1.343,0.122
-0.415,0.768,0.438,2.930,4.211,-0.854
-0.420,0.723,0.434,2.075,2.258,-0.427
-0.421,0.762,0.443,1.831,1.526,0.916
-0.414,0.753,0.452,0.977,1.099,0.366
-0.422,0.735,0.470,-1.404,1.770,0.183
-0.422,0.730,0.475,-1.770,2.075,0.244
-0.422,0.751,0.448,-1.526,2.563,0.427
-0.424,0.734,0.440,-0.305,1.404,-0.244
-0.421,0.722,0.478,1.160,0.732,-0.427
-0.420,0.691,0.410,3.174,1.953,-0.183
-0.409,0.748,0.474,3.723,-1.343,1.648
-0.412,0.757,0.441,3.357,-0.366,0.488
-0.410,0.729,0.487,1.282,-0.793,0.244
-0.416,0.723,0.477,0.671,0.793,0.244
-0.419,0.748,0.479,2.563,0.183,1.099

-1.109,0.956,0.625,31.494,-165.527,-19.714
-1.106,0.867,0.600,58.228,-164.124,-40.344
-1.135,0.492,0.625,61.951,-166.809,-45.288
-1.101,0.561,0.709,65.430,-166.199,-38.757
-1.106,0.449,0.723,58.960,-161.987,-40.100
-1.083,0.508,0.651,55.298,-158.691,-35.400
-1.080,0.529,0.929,39.429,-163.330,-30.640
-1.053,0.672,0.897,43.579,-156.250,-27.100
-1.049,0.785,0.981,56.946,-151.978,-34.485
-1.038,0.749,0.906,68.115,-145.874,-41.748
-0.999,0.408,0.908,74.890,-145.569,-53.711
-0.942,0.399,1.100,59.753,-143.372,-42.847
-0.907,0.651,1.134,47.302,-133.545,-35.461
-0.896,0.690,1.028,46.265,-126.709,-37.537
-0.870,0.732,1.036,51.697,-122.437,-42.175
-0.790,0.687,0.906,62.866,-111.755,-49.927
-0.765,0.596,0.943,63.599,-110.962,-53.589
-0.725,0.493,1.113,47.180,-105.591,-49.255
-0.703,0.622,1.035,36.499,-92.163,-43.396
-0.705,0.578,0.902,31.006,-81.970,-43.762
-0.680,0.673,0.832,28.748,-81.604,-40.161
-0.671,0.673,0.733,30.884,-77.087,-43.396
-0.656,0.637,0.752,34.363,-76.904,-47.058
-0.617,0.516,0.785,31.555,-74.463,-46.631
-0.555,0.467,0.831,22.583,-69.702,-41.626
-0.532,0.487,0.811,14.587,-59.937,-33.447
-0.520,0.607,0.723,17.944,-54.810,-28.687
-0.514,0.796,0.902,26.123,-57.678,-28.992
-0.526,0.650,0.793,35.889,-45.410,-40.100
-0.515,0.559,0.872,36.865,-45.837,-41.626
-0.507,0.457,0.847,34.363,-36.499,-39.429
-0.481,0.379,0.845,26.794,-32.166,-32.715
-0.463,0.418,0.821,23.560,-25.757,-24.902
-0.468,0.348,0.777,16.541,-23.376,-23.010
-0.469,0.548,0.725,14.893,-20.813,-11.169
-0.446,0.625,0.776,13.611,-21.179,-10.193
-0.441,0.533,0.731,11.414,-13.611,-15.198
-0.425,0.496,0.739,7.812,-11.841,-11.292
-0.413,0.521,0.739,7.263,-10.132,-8.179
-0.422,0.579,0.667,5.432,-5.249,-2.991
-0.429,0.666,0.634,6.042,-2.258,-0.122
-0.429,0.734,0.625,7.446,-1.404,0.488
-0.435,0.771,0.557,11.292,1.587,-2.075
-0.448,0.699,0.543,12.024,2.686,-5.188
-0.458,0.652,0.494,10.742,4.761,-3.296
-0.461,0.659,0.491,4.395,3.662,-0.732
-0.457,0.730,0.446,-0.061,5.188,2.563
-0.452,0.755,0.428,-1.648,4.944,3.418
-0.433,0.796,0.495,-2.808,3.479,1.953
-0.439,0.746,0.421,3.174,6.470,-1.038
-0.446,0.714,0.422,5.676,5.127,-1.648
-0.453,0.754,0.416,6.531,4.883,0.244
-0.449,0.792,0.403,5.310,5.188,0.061
-0.458,0.785,0.355,4.089,5.859,-0.610
-0.453,0.743,0.390,1.465,2.258,-1.099
-0.444,0.726,0.401,1.282,2.136,-0.366
-0.444,0.716,0.447,1.892,0.854,-0.122
-0.447,0.722,0.450,2.686,2.380,1.160
-0.454,0.769,0.370,2.808,4.883,2.380
-0.462,0.800,0.383,2.625,3.052,1.099
-0.461,0.797,0.400,2.380,2.991,-0.732
-0.464,0.751,0.351,3.479,3.540,-2.502
-0.465,0.731,0.360,3.540,2.136,-2.441
-0.466,0.720,0.446,3.296,-0.427,-0.916
-0.470,0.757,0.416,5.676,2.869,-0.244
-0.470,0.783,0.357,8.118,3.601,-0.549
-0.472,0.702,0.388,7.568,-0.244,-2.625
-0.452,0.715,0.417,6.470,-0.671,-0.549
-0.448,0.741,0.389,6.042,0.427,0.427
-0.442,0.762,0.462,2.991,-0.977,0.122
-0.446,0.765,0.395,0.427,1.709,-0.488
-0.445,0.747,0.419,0.488,-0.610,-1.099
-0.450,0.683,0.458,2.075,0.488,-2.014
-0.447,0.713,0.439,1.526,0.427,1.099
-0.448,0.755,0.438,0.977,0.061,2.625
-0.444,0.778,0.446,-0.305,-0.549,1.770
-0.438,0.819,0.422,-1.038,0.549,0.671
-0.435,0.774,0.480,-0.977,-0.305,-0.793
-0.446,0.731,0.423,0.671,2.747,-1.587
-0.451,0.748,0.459,1.099,0.549,0.183
-0.454,0.765,0.459,1.709,0.916,0.488
-0.456,0.799,0.417,2.197,1.953,0.488
-0.453,0.781,0.421,0.610,0.488,-0.549
-0.447,0.769,0.446,0.305,1.587,-0.488
-0.439,0.800,0.447,-0.122,0.793,-0.427
-0.439,0.791,0.428,1.526,2.014,-1.892
-0.447,0.758,0.413,2.319,2.258,-3.113
-0.444,0.711,0.470,3.723,-0.244,-2.869
-0.449,0.715,0.439,2.869,0.854,-1.038
-0.448,0.704,0.482,0.671,0.183,0.000
-0.437,0.745,0.477,0.122,1.038,0.427
-0.433,0.770,0.427,0.732,1.831,0.000
-0.431,0.787,0.437,1.526,0.916,-0.305
-0.433,0.760,0.448,3.235,1.221,-2.563
-0.442,0.712,0.417,5.371,1.892,-3.601
-0.438,0.708,0.458,4.883,0.061,-1.648
-0.437,0.736,0.442,2.869,1.831,-0.977
-0.430,0.764,0.476,1.526,0.793,-0.793
-0.430,0.755,0.442,1.831,2.136,-1.343
-0.433,0.739,0.421,1.892,1.343,-1.587

-0.749,0.827,1.012,-23.560,-139.648,-28.931
-0.766,0.952,0.964,-15.747,-132.568,-26.550
-0.760,0.957,0.957,4.761,-128.357,-37.048
-0.789,0.617,0.632,20.996,-123.047,-50.293
-0.782,0.488,0.887,12.512,-134.949,-48.950
-0.763,0.791,0.945,4.028,-128.235,-32.898
-0.768,0.976,1.006,-0.671,-124.573,-37.720
-0.791,1.022,0.808,6.714,-116.760,-44.678
-0.805,0.694,0.710,28.320,-119.934,-64.880
-0.785,0.272,0.775,31.738,-125.671,-68.298
-0.773,0.238,0.989,16.602,-130.554,-60.181
-0.749,0.484,0.871,-10.132,-115.295,-38.757
-0.772,0.783,0.897,-22.095,-112.244,-30.640
-0.783,0.858,0.816,-12.817,-108.093,-33.508
-0.798,0.949,0.774,28.259,-110.229,-47.546
-0.777,0.481,0.644,55.420,-110.107,-70.557
-0.756,0.220,0.820,46.631,-116.028,-61.462
-0.722,0.301,1.031,18.311,-109.619,-48.462
-0.721,0.588,0.802,4.456,-94.238,-36.682
-0.722,0.639,0.695,0.244,-93.323,-37.231
-0.728,0.787,0.623,6.592,-93.079,-39.612
-0.722,0.590,0.606,40.894,-98.694,-54.932
-0.705,0.379,0.710,50.293,-102.356,-59.143
-0.659,0.460,0.788,41.748,-98.694,-46.753
-0.644,0.510,0.802,16.052,-91.431,-38.086
-0.632,0.710,0.774,8.789,-87.524,-32.410
-0.638,0.883,0.781,12.878,-85.999,-36.133
-0.661,0.886,0.676,37.170,-83.008,-48.767
-0.664,0.650,0.680,61.890,-82.886,-63.721
-0.659,0.517,0.660,65.308,-81.726,-66.223
-0.632,0.207,0.817,44.434,-82.764,-59.143
-0.608,0.574,0.716,18.127,-70.984,-36.377
-0.609,0.658,0.715,10.681,-70.984,-35.095
-0.611,0.749,0.684,11.353,-68.848,-38.940
-0.584,0.649,0.687,25.696,-69.214,-47.485
-0.570,0.587,0.669,33.813,-68.542,-50.293
-0.563,0.384,0.719,38.757,-69.824,-51.147
-0.526,0.464,0.819,28.015,-67.017,-40.039
-0.502,0.462,0.852,8.362,-59.875,-34.912
-0.489,0.496,0.849,2.625,-56.580,-33.508
-0.479,0.553,0.861,0.793,-50.842,-29.541
-0.463,0.553,0.842,13.123,-45.837,-29.968
-0.456,0.587,0.873,26.306,-41.565,-30.518
-0.466,0.481,0.860,26.794,-38.757,-30.457
-0.457,0.562,0.812,18.433,-32.898,-23.315
-0.448,0.619,0.835,14.160,-31.677,-20.935
-0.426,0.636,0.793,12.085,-25.574,-21.606
-0.409,0.609,0.773,14.771,-23.193,-22.278
-0.401,0.591,0.748,17.334,-20.996,-22.217
-0.404,0.569,0.723,19.653,-18.372,-20.386
-0.411,0.619,0.732,20.081,-15.320,-17.456
-0.420,0.635,0.726,18.616,-9.827,-17.517
-0.416,0.541,0.620,15.564,-8.118,-18.677
-0.410,0.479,0.645,4.578,-8.545,-13.672
-0.412,0.519,0.618,-1.221,-4.639,-6.409
-0.404,0.578,0.639,-1.709,-3.784,-1.343
-0.403,0.729,0.571,1.953,-1.831,-0.671
-0.405,0.719,0.520,10.193,-0.977,-5.737
-0.408,0.651,0.505,15.564,-1.282,-8.057
-0.410,0.610,0.480,14.404,-0.549,-7.507
-0.406,0.614,0.573,7.812,-2.380,-3.784
-0.403,0.667,0.515,0.916,1.709,-0.366
-0.402,0.716,0.495,-1.953,1.953,0.793
-0.403,0.753,0.505,-4.150,1.282,0.305
-0.403,0.723,0.513,2.014,0.549,-1.831
-0.405,0.708,0.530,6.104,0.305,-2.197
-0.408,0.697,0.529,9.277,1.404,-1.282
-0.402,0.743,0.516,7.690,2.808,-0.122
-0.406,0.718,0.496,6.104,3.540,-0.488
-0.404,0.756,0.525,1.709,2.380,1.282
-0.406,0.770,0.530,1.221,4.395,0.061
-0.417,0.764,0.470,1.526,4.639,-0.305
-0.418,0.755,0.498,2.319,2.380,-1.099
-0.422,0.722,0.480,4.028,2.136,-1.465
-0.414,0.754,0.474,4.211,1.404,-0.916
-0.411,0.703,0.495,2.686,1.221,-1.953
-0.407,0.684,0.546,0.244,1.221,-0.488
-0.406,0.704,0.553,-0.549,2.136,0.427
-0.409,0.727,0.496,-1.282,4.578,1.282
-0.409,0.727,0.486,-0.122,3.906,1.343
-0.414,0.730,0.473,0.305,4.150,1.465
-0.408,0.792,0.519,1.709,2.991,1.648
-0.413,0.781,0.468,3.174,5.310,-1.282
-0.422,0.720,0.454,3.723,4.272,-1.160
-0.418,0.722,0.497,2.319,2.991,-0.244
-0.421,0.704,0.457,-1.404,4.761,0.671
-0.404,0.742,0.523,-1.343,1.770,1.465
-0.409,0.758,0.455,0.549,5.005,0.916
-0.410,0.774,0.474,0.244,3.540,0.793
-0.415,0.776,0.464,2.991,3.906,-0.671
-0.413,0.730,0.453,5.737,2.686,-2.441
-0.411,0.713,0.458,4.822,2.441,-2.502
-0.404,0.706,0.462,1.831,1.587,-0.916
-0.376,0.710,0.481,-0.549,2.014,0.061
-0.400,0.723,0.513,-0.793,1.587,0.427
-0.409,0.727,0.435,-1.465,3.296,0.549
-0.408,0.739,0.493,-1.770,-0.366,0.244
-0.408,0.727,0.478,0.671,2.502,-0.061
-0.402,0.711,0.499,1.221,0.549,0.122
-0.400,0.719,0.486,1.404,1.038,0.610

-1.242,0.847,0.811,-52.002,-197.815,-59.448
-1.239,0.894,0.884,-60.669,-193.665,-56.030
-1.258,1.005,0.959,-48.889,-185.120,-62.256
-1.296,0.664,0.771,-6.531,-177.124,-81.909
-1.290,0.413,0.847,19.592,-185.486,-87.463
-1.240,0.319,0.927,22.644,-187.805,-87.097
-1.183,0.029,1.074,11.841,-185.608,-79.041
-1.108,0.372,1.111,-1.587,-175.720,-51.636
-1.084,0.661,1.062,-0.671,-169.067,-45.288
-1.107,0.959,0.918,14.954,-166.016,-60.791
-1.064,0.462,1.143,38.147,-170.349,-79.590
-1.042,-0.028,1.158,38.025,-161.682,-82.336
-0.997,0.001,1.419,24.292,-165.283,-69.824
-0.932,0.472,1.026,12.329,-137.085,-41.504
-0.909,0.864,0.915,10.193,-139.038,-38.025
-0.893,0.743,0.975,21.545,-138.916,-57.251
-0.834,0.737,0.839,38.818,-136.169,-63.416
-0.790,-0.178,1.375,31.433,-147.461,-76.782
-0.692,0.354,1.367,1.282,-119.873,-29.480
-0.668,0.599,1.333,-16.479,-103.333,-16.174
-0.672,1.081,1.094,-9.949,-97.412,-16.785
-0.639,1.100,0.974,30.945,-93.262,-44.800
-0.559,0.449,1.063,65.125,-95.154,-74.829
-0.539,0.164,1.201,64.758,-93.262,-74.402
-0.491,0.167,1.464,36.987,-79.468,-46.753
-0.479,0.561,1.036,2.502,-49.683,-25.513
-0.460,0.677,1.061,-9.521,-50.476,-27.710
-0.438,0.622,0.971,-6.287,-41.321,-31.738
-0.420,0.580,0.742,27.161,-37.537,-36.316
-0.395,0.421,0.867,41.016,-44.983,-40.100
-0.381,0.249,1.013,35.095,-36.560,-32.654
-0.380,0.450,0.846,13.611,-24.780,-16.724
-0.361,0.570,0.802,7.141,-21.362,-12.939
-0.348,0.579,0.736,10.376,-18.311,-13.550
-0.331,0.500,0.814,16.541,-19.226,-15.991
-0.349,0.454,0.790,18.799,-10.803,-12.634
-0.343,0.511,0.814,19.104,-9.949,-6.409
-0.351,0.562,0.747,14.709,-2.991,-4.700
-0.361,0.584,0.667,9.949,-0.427,-1.770
-0.356,0.600,0.633,9.521,1.648,0.366
-0.360,0.659,0.574,11.353,3.418,1.953
-0.361,0.724,0.527,16.785,2.075,1.526
-0.352,0.692,0.511,16.968,1.953,0.244
-0.361,0.667,0.516,12.573,1.099,1.831
-0.361,0.693,0.547,2.380,1.892,6.775
-0.368,0.820,0.524,0.122,3.662,7.019
-0.379,0.838,0.519,3.479,4.456,3.174
-0.389,0.782,0.476,6.531,7.019,-0.305
-0.402,0.724,0.432,7.812,6.409,0.610
-0.400,0.744,0.459,7.019,4.272,3.113
-0.404,0.781,0.462,7.263,3.906,4.395
-0.398,0.822,0.451,3.967,4.272,4.089
-0.401,0.805,0.425,0.000,4.700,2.258
-0.401,0.808,0.418,-0.366,4.517,2.136
-0.398,0.805,0.443,1.587,3.235,0.671
-0.396,0.808,0.435,6.531,3.113,-0.244
-0.413,0.815,0.369,9.705,3.723,-1.648
-0.396,0.734,0.455,10.376,-0.610,-3.418
-0.396,0.756,0.440,9.033,0.427,-1.587
-0.396,0.718,0.490,6.226,-0.122,-1.343
-0.400,0.751,0.464,4.333,1.160,0.977
-0.395,0.786,0.501,1.587,1.831,1.465
-0.395,0.802,0.484,1.587,3.052,0.549
-0.404,0.781,0.439,4.150,3.784,-0.977
-0.406,0.768,0.423,6.165,3.235,-1.465
-0.406,0.764,0.439,8.972,1.038,-1.587
-0.398,0.727,0.451,8.057,0.854,-1.770
-0.392,0.723,0.461,6.592,0.427,-0.061
-0.387,0.763,0.480,3.296,-0.305,0.061
-0.390,0.781,0.481,1.343,-0.122,-0.122
-0.394,0.779,0.473,0.122,0.000,-0.916
-0.399,0.755,0.428,0.061,-0.122,-1.770
-0.395,0.720,0.511,1.404,-3.479,-1.343
-0.387,0.751,0.534,2.808,-3.296,-0.549
-0.383,0.739,0.500,5.005,-0.732,-1.709
-0.383,0.725,0.476,5.676,0.000,-1.526
-0.374,0.740,0.469,6.104,-1.831,-0.610
-0.378,0.740,0.485,4.761,-1.038,-0.916
-0.384,0.734,0.542,4.028,-1.709,-0.732
-0.389,0.751,0.521,2.991,0.000,-0.732
-0.393,0.729,0.501,1.770,0.732,-1.221
-0.395,0.753,0.475,1.831,0.122,-0.305
-0.393,0.743,0.490,3.296,-1.038,-1.221
-0.393,0.714,0.520,3.357,-0.854,-1.404
-0.391,0.699,0.495,3.418,-0.427,-0.793
-0.387,0.750,0.515,2.686,-1.343,0.671
-0.387,0.771,0.498,3.235,-0.244,-0.061
-0.391,0.762,0.488,3.113,-0.183,-0.549
-0.383,0.776,0.509,3.845,-0.671,-0.977
-0.391,0.748,0.514,4.944,-0.793,-2.625
-0.385,0.737,0.523,5.920,-0.610,-2.686
-0.389,0.720,0.514,6.042,-0.122,-3.052
-0.391,0.699,0.511,4.700,-0.183,-2.319
-0.397,0.708,0.484,3.235,0.305,-1.282
-0.382,0.724,0.600,1.099,-3.357,-0.366
-0.382,0.736,0.504,2.014,0.916,-0.610
-0.380,0.736,0.541,2.197,-1.038,-1.099
-0.385,0.699,0.465,1.770,1.465,-1.160
-0.375,0.773,0.555,2.014,-1.892,0.488
-0.375,0.770,0.595,3.418,-0.366,-1.526

-1.194,1.058,0.113,-28.259,-169.250,-63.660
-1.267,0.945,0.280,-20.935,-177.429,-71.289
-1.304,0.673,0.431,-22.583,-180.786,-82.031
-1.319,0.357,0.582,-25.452,-188.477,-82.642
-1.317,0.391,0.566,-26.489,-190.063,-68.542
-1.291,0.427,0.758,-27.039,-197.021,-65.125
-1.276,0.635,0.942,-1.587,-197.632,-59.753
-1.269,0.870,0.975,46.692,-195.557,-69.275
-1.291,0.534,1.023,61.829,-194.702,-96.130
-1.247,0.253,1.137,59.875,-189.941,-92.773
-1.203,0.036,1.249,28.931,-180.481,-83.557
-1.167,0.179,0.999,8.850,-164.368,-66.956
-1.118,0.287,0.929,8.362,-167.664,-62.927
-1.121,0.265,0.931,17.517,-171.021,-60.913
-1.038,0.588,1.179,29.419,-173.462,-53.162
-1.059,0.456,1.280,33.875,-169.189,-60.608
-1.026,0.525,1.266,41.870,-155.396,-63.171
-1.024,0.403,1.169,43.030,-146.240,-68.115
-0.937,0.341,0.933,43.579,-140.259,-69.275
-0.872,-0.018,1.507,18.066,-151.001,-62.134
-0.843,0.255,1.237,13.000,-130.249,-43.640
-0.748,0.490,1.294,15.015,-127.075,-35.706
-0.773,0.702,1.154,48.889,-119.507,-41.504
-0.752,0.583,1.336,60.669,-124.756,-51.025
-0.695,0.473,1.254,81.787,-109.924,-63.721
-0.647,0.114,1.390,68.665,-100.830,-65.735
-0.618,0.175,1.171,59.448,-88.257,-55.786
-0.573,0.235,1.153,19.409,-85.327,-42.786
-0.563,0.450,1.010,4.028,-74.646,-34.790
-0.548,0.447,1.035,8.728,-74.280,-36.255
-0.513,0.392,0.886,32.532,-66.895,-40.344
-0.488,0.331,0.792,49.255,-66.956,-39.856
-0.459,0.261,1.079,49.683,-74.341,-38.574
-0.409,0.223,1.078,52.429,-59.204,-30.457
-0.404,0.100,1.446,44.800,-61.035,-26.001
-0.422,0.149,1.349,32.166,-34.668,-11.292
-0.428,0.262,1.248,20.752,-25.757,-2.136
-0.389,0.569,1.217,-3.845,-16.846,8.728
-0.378,0.842,1.008,-18.433,-1.099,7.874
-0.385,0.829,0.960,-14.893,1.404,1.404
-0.404,0.668,0.902,9.521,6.348,-11.475
-0.457,0.624,0.490,38.818,10.193,-10.376
-0.458,0.673,0.616,45.654,-1.343,-6.958
-0.450,0.756,0.709,42.664,-2.075,-4.028
-0.414,0.775,0.686,29.114,0.183,-3.296
-0.401,0.818,0.698,25.391,0.183,-2.747
-0.406,0.758,0.678,23.743,3.052,-7.385
-0.405,0.708,0.699,26.855,6.042,-8.972
-0.418,0.647,0.607,29.236,9.827,-9.949
-0.429,0.604,0.659,30.090,6.287,-7.507
-0.447,0.636,0.577,20.752,10.315,-3.418
-0.443,0.624,0.581,-0.671,11.292,-3.235
-0.438,0.543,0.523,-8.728,11.353,-0.732
-0.426,0.624,0.465,-10.803,9.338,3.540
-0.424,0.674,0.509,-6.775,5.676,4.211
-0.409,0.705,0.590,3.174,3.540,0.916
-0.412,0.686,0.536,7.263,6.287,-2.991
-0.414,0.609,0.573,7.690,3.052,-2.502
-0.414,0.633,0.644,8.850,3.479,-0.122
-0.421,0.674,0.560,2.625,8.423,0.793
-0.419,0.692,0.557,-1.160,7.874,0.854
-0.439,0.677,0.454,-0.122,7.996,-1.038
-0.433,0.635,0.645,3.723,1.648,-1.648
-0.438,0.613,0.580,6.348,6.348,-1.831
-0.438,0.628,0.531,10.376,5.310,-0.671
-0.433,0.625,0.538,9.583,3.479,0.122
-0.428,0.665,0.514,7.446,3.662,1.282
-0.417,0.693,0.565,-0.122,1.892,0.793
-0.413,0.688,0.585,-0.427,2.502,-0.793
-0.416,0.666,0.571,2.136,2.686,-2.136
-0.419,0.608,0.582,5.493,2.136,-2.563
-0.426,0.596,0.572,6.409,4.272,-1.953
-0.430,0.543,0.534,4.883,2.197,-0.977
-0.423,0.594,0.569,-0.061,1.648,2.258
-0.426,0.634,0.553,2.441,2.014,2.075
-0.421,0.622,0.546,4.089,0.122,2.136
-0.417,0.641,0.556,3.357,-0.305,2.441
-0.417,0.614,0.570,1.648,-0.916,1.770
-0.414,0.605,0.604,-0.305,-1.465,3.174
-0.411,0.641,0.659,-3.479,-1.160,4.883
-0.417,0.650,0.616,-2.502,2.991,4.761
-0.423,0.701,0.573,-0.549,0.061,4.578
-0.421,0.710,0.626,2.319,-1.587,2.136
-0.420,0.692,0.620,4.517,0.305,-0.244
-0.423,0.660,0.612,4.883,0.549,-0.122
-0.423,0.636,0.619,3.296,-0.244,0.000
-0.419,0.652,0.658,1.831,15.137,0.977
-0.425,0.650,0.576,0.488,2.625,0.793
-0.430,0.632,0.655,1.221,-1.343,0.732
-0.422,0.667,0.672,1.038,-0.854,1.465
-0.433,0.669,0.546,2.625,2.441,0.183
-0.423,0.653,0.634,4.150,-0.610,-0.793
-0.424,0.618,0.602,4.517,1.648,-1.465
-0.420,0.596,0.600,1.587,1.038,-0.183
-0.422,0.627,0.622,-2.136,1.282,2.197
-0.420,0.649,0.605,-2.869,2.258,2.625
-0.429,0.641,0.574,-2.380,2.441,1.099
-0.431,0.649,0.544,-1.343,0.671,0.854
-0.429,0.642,0.605,-1.709,-0.732,0.488
-0.425,0.616,0.597,-0.305,0.427,0.305

-0.238,0.438,-2.465,-10.437,10.559,-14.099
-0.341,0.463,-2.555,-58.533,-47.241,2.930
-0.450,0.642,-2.101,-148.132,-148.499,36.743
-0.737,1.238,-1.733,-168.457,-186.646,43.701
-0.942,1.725,-0.503,-121.887,-258.667,32.654
-0.818,1.213,2.090,-26.123,-328.857,-22.583
-0.502,0.260,3.708,11.658,-310.791,-92.712
-0.528,-1.200,0.612,24.536,-2.380,-75.928
-0.813,0.967,-2.705,-88.013,-9.033,79.529
-0.606,1.620,0.324,-78.674,-248.169,100.952
-0.559,1.366,0.765,-25.818,-223.694,52.002
-0.522,0.675,1.464,0.793,-196.228,8.789
-0.553,0.722,1.098,-12.878,-144.165,23.254
-0.641,0.980,0.794,-18.555,-134.033,31.677
-0.720,1.253,0.789,-11.536,-145.569,26.550
-0.689,1.044,0.938,18.188,-150.208,1.892
-0.639,0.872,1.024,29.114,-150.085,-7.141
-0.559,0.740,1.055,33.508,-141.968,-14.404
-0.559,0.802,0.985,27.161,-135.437,-11.108
-0.571,0.992,1.026,23.010,-134.949,-10.132
-0.644,1.188,0.879,26.245,-126.099,-16.724
-0.706,0.970,0.737,34.668,-123.657,-38.757
-0.656,0.585,0.947,27.832,-130.432,-51.514
-0.631,0.359,1.009,24.780,-128.296,-50.842
-0.584,0.347,1.023,16.174,-119.446,-28.687
-0.578,0.772,0.812,20.874,-108.459,-12.878
-0.592,0.886,0.780,26.672,-108.398,-21.667
-0.629,0.810,0.627,36.865,-107.056,-30.457
-0.611,0.586,1.058,26.428,-121.277,-35.461
-0.566,0.463,1.071,30.151,-106.628,-34.302
-0.560,0.561,1.031,31.433,-101.990,-29.114
-0.551,0.628,0.935,29.968,-95.032,-27.100
-0.546,0.673,0.925,30.762,-89.417,-25.818
-0.562,0.687,0.734,28.564,-86.731,-28.748
-0.602,0.683,0.720,17.334,-89.722,-29.724
-0.568,0.488,1.057,12.573,-97.351,-34.973
-0.556,0.421,0.999,15.015,-88.013,-28.259
-0.538,0.474,0.869,18.127,-79.956,-24.109
-0.518,0.586,0.829,18.127,-77.271,-18.433
-0.510,0.677,0.795,18.860,-72.754,-18.433
-0.496,0.727,0.725,17.212,-71.533,-20.081
-0.516,0.633,0.635,7.629,-70.679,-24.414
-0.530,0.635,0.655,-1.770,-70.313,-21.057
-0.546,0.685,0.641,-0.854,-69.824,-19.165
-0.551,0.718,0.653,5.981,-70.801,-19.348
-0.545,0.754,0.631,12.146,-68.542,-20.691
-0.552,0.696,0.619,11.902,-67.505,-22.583
-0.560,0.691,0.654,8.545,-67.993,-21.240
-0.562,0.712,0.663,5.066,-66.772,-20.020
-0.566,0.758,0.628,8.240,-64.697,-20.935
-0.568,0.715,0.717,7.812,-66.895,-23.132
-0.560,0.663,0.697,8.362,-61.279,-24.231
-0.557,0.618,0.742,6.775,-59.753,-23.010
-0.545,0.651,0.727,6.104,-57.129,-21.057
-0.548,0.699,0.651,8.057,-52.612,-20.081
-0.539,0.736,0.564,15.259,-49.744,-21.057
-0.548,0.677,0.491,17.334,-48.462,-23.193
-0.544,0.673,0.587,14.832,-55.237,-21.484
-0.557,0.590,0.543,10.132,-49.072,-22.583
-0.560,0.591,0.514,6.531,-48.462,-19.226
-0.546,0.613,0.473,6.409,-47.791,-17.761
-0.543,0.535,0.507,3.845,-49.683,-15.381
-0.539,0.803,0.536,11.658,-49.072,-7.080
-0.550,0.842,0.562,16.174,-48.584,-26.550
-0.570,0.838,0.485,26.123,-43.091,-20.264
-0.550,0.591,0.328,33.386,-45.105,-30.273
-0.549,0.260,0.489,3.479,-54.688,-20.752
-0.523,0.515,0.714,-5.188,-49.438,-4.944
-0.532,0.790,0.615,-7.996,-39.185,1.465
-0.551,0.903,0.508,6.470,-35.950,-5.066
-0.539,0.902,0.462,17.212,-35.828,-10.864
-0.524,0.588,0.461,30.640,-39.246,-25.085
-0.489,0.383,0.774,17.822,-43.823,-15.686
-0.495,0.530,0.825,13.245,-37.659,-5.188
-0.509,0.798,0.608,15.564,-23.987,-0.244
-0.526,0.931,0.652,26.855,-24.780,-7.568
-0.512,0.993,0.592,38.940,-21.545,-14.465
-0.523,0.538,0.525,54.016,-20.020,-35.828
-0.491,0.457,0.699,50.293,-20.386,-25.146
-0.497,0.456,0.672,47.241,-14.893,-16.968
-0.504,0.553,0.650,43.213,-10.498,-12.085
-0.513,0.732,0.431,47.485,-0.977,-9.277
-0.490,0.785,0.611,62.134,-10.498,-16.724
-0.511,0.768,0.407,75.256,-2.808,-21.729
-0.484,0.703,0.398,94.849,-13.245,-29.358
-0.493,0.240,0.622,72.815,-15.503,-32.349
-0.490,0.283,0.741,55.542,-14.465,-6.897
-0.500,0.605,0.631,28.259,-2.502,-0.244
-0.507,0.739,0.660,16.541,-4.395,-0.488
-0.500,0.745,0.591,17.700,0.122,-4.456
-0.477,0.699,0.514,20.203,-2.441,-6.653
-0.452,0.636,0.597,18.738,-7.202,-6.165
-0.451,0.600,0.638,0.061,-6.104,0.061
-0.450,0.738,0.733,-7.446,-3.906,3.113
-0.461,0.779,0.593,-13.733,4.028,1.465
-0.474,0.713,0.529,-8.179,2.319,-3.479
-0.475,0.601,0.619,-5.798,-1.099,-6.287
-0.487,0.618,0.538,-0.977,3.662,-1.648
-0.492,0.599,0.546,-5.005,0.671,-0.732
-0.491,0.605,0.600,-5.249,2.197,0.488

-0.034,1.199,-1.652,-40.588,88.745,-29.297
-0.554,0.818,-3.478,-29.175,29.663,-40.466
-0.803,0.991,-3.571,-58.594,-73.059,-23.499
-1.035,0.932,0.058,-121.948,-351.135,-10.071
-0.847,0.824,2.319,-54.199,-350.342,-28.564
-0.287,-0.134,4.000,-27.161,-382.935,-65.308
-0.369,-1.145,1.999,34.851,64.819,-55.664
-0.703,1.594,-3.667,-42.847,150.635,113.281
-0.668,2.170,-2.124,-105.286,-89.844,78.247
-0.434,1.685,0.449,-84.961,-212.463,7.629
-0.343,0.877,1.032,-5.432,-165.100,-36.987
-0.353,0.712,0.935,12.695,-142.151,-38.696
-0.467,0.543,0.525,1.526,-116.272,-29.968
-0.552,1.002,0.568,-24.841,-122.559,-7.996
-0.574,1.171,0.521,-19.592,-127.075,-18.311
-0.537,1.090,0.716,-6.714,-137.329,-29.053
-0.508,0.932,0.547,13.794,-125.916,-41.687
-0.546,0.775,0.731,9.460,-137.390,-45.837
-0.567,0.651,0.924,5.127,-142.761,-45.776
-0.587,0.723,1.084,-3.479,-132.446,-31.738
-0.628,0.955,0.839,2.075,-116.211,-26.123
-0.653,0.995,0.745,9.216,-116.211,-36.682
-0.682,0.919,0.680,17.151,-121.765,-42.603
-0.667,0.632,0.982,15.808,-129.028,-54.077
-0.607,0.487,0.967,10.864,-118.225,-51.453
-0.603,0.505,0.915,7.324,-113.159,-46.814
-0.612,0.642,0.718,14.771,-109.741,-39.124
-0.630,0.859,0.894,22.156,-117.310,-37.109
-0.638,0.942,0.755,28.931,-110.596,-41.809
-0.649,0.612,0.925,21.912,-116.821,-61.035
-0.631,0.476,0.966,13.855,-109.375,-59.509
-0.630,0.414,0.937,7.812,-105.164,-57.129
-0.616,0.583,0.809,9.766,-99.121,-45.349
-0.609,0.665,0.735,22.339,-100.891,-45.166
-0.599,0.664,0.906,24.780,-106.140,-48.828
-0.595,0.597,0.987,20.264,-104.614,-50.903
-0.589,0.646,1.025,16.663,-97.229,-49.072
-0.604,0.685,0.957,17.822,-88.684,-51.208
-0.603,0.671,0.828,28.442,-82.581,-57.434
-0.594,0.499,0.745,28.442,-85.754,-60.059
-0.571,0.292,0.880,11.169,-88.501,-54.810
-0.553,0.330,0.927,5.188,-82.092,-39.307
-0.544,0.548,0.854,5.615,-79.712,-34.790
-0.548,0.783,0.818,14.587,-77.637,-34.668
-0.549,0.831,0.761,38.452,-75.378,-48.523
-0.541,0.713,0.670,51.270,-73.975,-73.975
-0.528,0.164,0.865,38.269,-78.674,-66.223
-0.510,0.216,0.765,14.709,-67.322,-41.687
-0.510,0.430,0.706,6.104,-66.162,-29.480
-0.503,0.750,0.699,5.005,-68.909,-23.499
-0.504,0.725,0.741,18.555,-69.519,-36.438
-0.506,0.632,0.745,23.071,-68.054,-41.992
-0.489,0.677,0.716,25.818,-64.819,-40.161
-0.477,0.521,0.729,10.681,-63.904,-43.274
-0.471,0.502,0.762,0.916,-64.148,-40.100
-0.480,0.575,0.850,-6.714,-62.683,-31.494
-0.494,0.695,0.718,-4.211,-52.856,-27.344
-0.501,0.712,0.685,-2.075,-52.612,-28.198
-0.518,0.645,0.636,1.038,-52.856,-32.593
-0.482,0.601,0.562,4.700,-53.894,-33.875
-0.460,0.504,0.566,3.235,-55.237,-34.790
-0.458,0.313,0.649,-8.545,-54.321,-26.611
-0.446,0.614,0.762,-4.883,-56.519,-9.277
-0.449,0.675,0.760,11.658,-51.392,-13.367
-0.430,0.719,0.720,16.724,-47.852,-16.174
-0.433,0.749,0.773,15.076,-46.448,-21.545
-0.439,0.675,0.791,10.803,-38.635,-28.381
-0.426,0.638,0.734,12.695,-34.607,-29.602
-0.419,0.520,0.754,21.667,-35.400,-31.494
-0.407,0.445,0.787,29.907,-31.860,-24.780
-0.395,0.505,0.772,30.334,-28.748,-18.494
-0.382,0.539,0.827,21.912,-26.245,-13.611
-0.403,0.610,0.715,13.123,-17.273,-9.094
-0.398,0.698,0.699,9.460,-19.104,-8.972
-0.401,0.722,0.719,7.507,-15.503,-12.878
-0.395,0.602,0.730,11.780,-13.306,-17.822
-0.393,0.565,0.679,13.306,-10.498,-15.381
-0.396,0.495,0.723,11.108,-11.780,-12.329
-0.396,0.653,0.693,8.545,-7.935,-3.540
-0.397,0.681,0.718,7.019,-7.874,-4.883
-0.392,0.680,0.644,9.338,-2.502,-5.859
-0.394,0.607,0.576,12.878,-1.587,-8.240
-0.389,0.576,0.642,10.620,-3.357,-4.883
-0.392,0.605,0.598,10.315,-0.916,-2.502
-0.383,0.629,0.686,6.226,-2.747,-0.549
-0.376,0.692,0.582,3.113,1.587,1.648
-0.374,0.693,0.584,0.732,0.732,1.648
-0.373,0.692,0.586,-2.380,0.977,1.892
-0.376,0.751,0.607,-2.502,1.770,3.174
-0.379,0.789,0.603,-0.732,2.930,2.136
-0.398,0.726,0.502,1.892,6.226,-2.136
-0.398,0.675,0.567,-0.244,1.953,-2.441
-0.403,0.631,0.542,0.793,3.723,-2.014
-0.401,0.648,0.494,-2.075,4.089,2.502
-0.397,0.701,0.489,-6.104,1.587,5.981
-0.392,0.760,0.571,-7.507,0.977,5.798
-0.391,0.798,0.536,-5.554,4.211,3.296
-0.391,0.776,0.534,-3.174,4.761,-0.671
-0.399,0.725,0.469,1.648,5.554,-1.770
-0.402,0.638,0.569,0.366,1.587,-2.075

-0.497,1.579,-0.916,-75.378,-91.431,-4.272
-0.598,1.529,-0.856,-70.862,-112.732,-16.052
-0.709,1.548,-0.602,-51.758,-146.118,-32.593
-0.803,1.384,-0.402,-37.537,-157.593,-57.983
-0.823,1.184,-0.164,-36.438,-162.720,-82.031
-0.908,0.461,-0.268,-33.752,-158.264,-84.839
-0.995,0.350,-0.375,-39.917,-163.757,-57.678
-1.078,0.500,-0.234,-49.622,-180.420,-29.297
-1.110,0.813,-0.079,-50.293,-189.941,-14.465
-1.146,1.312,0.218,-36.255,-204.102,-15.198
-1.207,1.010,0.684,-17.029,-220.825,-49.561
-1.224,0.792,1.221,-7.935,-224.548,-60.486
-1.235,0.688,1.219,-5.371,-207.886,-63.782
-1.255,0.549,1.137,-6.653,-194.092,-66.162
-1.279,0.611,1.057,-11.108,-187.195,-60.181
-1.274,0.630,1.013,-11.414,-193.665,-63.904
-1.195,0.619,1.390,-2.991,-196.594,-64.087
-1.126,0.561,1.527,22.095,-186.646,-72.632
-1.089,0.336,1.176,46.875,-162.842,-79.834
-1.067,0.230,1.185,46.814,-163.574,-79.285
-1.031,0.364,0.944,47.791,-155.273,-67.810
-1.019,0.242,1.039,36.682,-159.363,-62.073
-0.971,0.336,0.988,27.161,-153.381,-58.289
-0.926,0.486,0.934,22.888,-149.658,-49.316
-0.942,0.626,0.960,28.992,-150.391,-46.143
-0.898,0.804,1.189,45.227,-153.381,-54.260
-0.916,0.628,1.227,49.805,-143.250,-73.975
-0.884,0.445,1.241,48.279,-134.338,-70.251
-0.861,0.372,1.285,40.649,-127.136,-67.322
-0.834,0.469,1.264,41.931,-122.498,-63.660
-0.795,0.345,1.183,42.236,-111.938,-65.613
-0.746,0.527,1.028,51.270,-103.516,-58.777
-0.718,0.612,1.085,58.289,-105.713,-60.547
-0.688,0.280,0.978,62.012,-98.816,-77.026
-0.683,-0.047,1.226,44.495,-104.614,-66.467
-0.590,0.216,1.333,23.437,-89.355,-48.950
-0.557,0.391,1.178,19.470,-74.768,-41.321
-0.599,0.587,1.037,20.569,-74.219,-38.635
-0.562,0.651,1.184,35.461,-76.843,-47.913
-0.532,0.699,1.041,56.885,-69.336,-52.795
-0.512,0.077,1.202,52.124,-70.007,-68.176
-0.492,0.033,1.208,31.738,-53.528,-46.265
-0.471,0.151,1.226,20.752,-49.255,-33.813
-0.463,0.454,1.027,13.306,-36.743,-20.935
-0.456,0.501,1.023,10.864,-36.682,-22.034
-0.451,0.569,0.861,23.376,-30.457,-26.428
-0.449,0.632,0.805,34.729,-30.823,-30.518
-0.436,0.390,0.763,43.762,-31.616,-41.809
-0.420,0.076,0.909,26.978,-33.752,-37.903
-0.414,0.056,1.050,13.733,-32.471,-27.893
-0.405,0.398,0.964,10.193,-17.090,-5.432
-0.413,0.500,0.931,15.808,-14.709,-3.662
-0.425,0.578,0.883,33.203,-11.719,-7.324
-0.435,0.551,0.742,45.288,-7.202,-13.184
-0.421,0.538,0.705,47.241,-7.568,-14.648
-0.398,0.490,0.638,43.823,-9.705,-16.541
-0.409,0.327,0.755,18.799,-15.442,-11.902
-0.389,0.433,0.950,7.812,-11.353,-2.380
-0.379,0.608,0.930,1.404,-1.282,1.465
-0.389,0.669,0.818,3.784,4.395,0.305
-0.400,0.615,0.691,12.451,5.493,-5.737
-0.399,0.597,0.611,15.320,6.104,-6.592
-0.405,0.566,0.659,12.085,0.671,-6.348
-0.408,0.547,0.715,8.545,-0.549,-6.165
-0.410,0.510,0.691,1.465,1.831,-3.723
-0.403,0.509,0.744,-2.625,0.916,0.793
-0.399,0.628,0.684,-5.615,6.653,2.686
-0.399,0.643,0.686,0.122,5.127,0.183
-0.407,0.634,0.621,3.906,7.019,-0.854
-0.419,0.582,0.643,2.930,3.967,-2.502
-0.410,0.567,0.645,-2.136,6.897,-0.977
-0.426,0.560,0.586,-3.235,9.033,-0.183
-0.420,0.565,0.617,-5.554,5.981,1.282
-0.423,0.614,0.493,-2.441,6.714,3.235
-0.412,0.626,0.616,-1.953,0.671,1.648
-0.415,0.624,0.548,3.479,3.296,0.366
-0.407,0.590,0.615,3.418,0.305,-0.244
-0.406,0.520,0.649,-1.038,2.319,0.305
-0.411,0.553,0.600,-2.380,4.517,2.747
-0.405,0.617,0.713,-6.653,1.526,5.188
-0.412,0.645,0.570,-5.859,7.446,4.517
-0.416,0.627,0.574,-3.418,4.761,3.113
-0.428,0.605,0.501,1.404,3.418,2.930
-0.420,0.629,0.588,-0.610,-0.732,2.991
-0.418,0.588,0.705,-2.563,-0.061,2.075
-0.423,0.555,0.658,-0.427,3.479,2.808
-0.415,0.575,0.704,0.305,3.662,5.249
-0.413,0.586,0.698,0.854,5.615,5.981
-0.426,0.628,0.549,4.700,9.705,6.165
-0.420,0.609,0.601,4.211,5.981,4.883
-0.430,0.613,0.452,2.808,7.446,5.188
-0.415,0.561,0.642,-2.258,-2.197,5.310
-0.409,0.613,0.637,0.549,0.610,8.240
-0.405,0.658,0.670,1.099,0.366,6.531
-0.412,0.667,0.616,1.648,2.869,4.822
-0.425,0.685,0.578,0.000,2.136,2.991
-0.430,0.623,0.664,-1.282,-0.977,1.648
-0.426,0.551,0.661,-1.343,1.709,2.380
-0.418,0.556,0.682,-0.916,1.648,3.723
-0.414,0.618,0.658,0.427,2.991,7.202

-1.085,0.823,1.013,-57.983,-180.969,-51.636
-1.072,0.968,1.071,-42.847,-179.626,-51.331
-1.026,0.866,1.036,2.808,-172.607,-72.998
-1.051,0.537,0.937,14.221,-169.434,-85.510
-1.059,0.527,0.965,0.549,-170.166,-79.956
-1.053,0.488,1.020,-4.944,-170.532,-79.651
-0.974,0.381,1.164,-2.686,-167.908,-77.637
-0.928,0.391,1.000,10.010,-158.997,-72.327
-0.919,0.316,1.173,5.249,-160.522,-67.139
-0.893,0.498,1.360,5.737,-153.809,-57.312
-0.867,0.598,1.327,13.855,-145.020,-56.213
-0.789,0.665,1.134,33.447,-131.836,-63.782
-0.815,0.094,1.001,21.179,-124.146,-74.402
-0.728,0.388,1.213,14.832,-126.038,-50.598
-0.702,0.561,1.114,40.283,-115.967,-50.659
-0.696,0.508,0.964,68.054,-109.497,-57.007
-0.679,0.511,0.803,72.144,-105.652,-60.730
-0.612,0.361,0.993,48.889,-113.647,-59.509
-0.606,0.407,1.182,24.048,-108.154,-52.124
-0.574,0.536,1.352,16.907,-97.534,-45.898
-0.549,0.623,1.056,21.973,-75.317,-46.753
-0.542,0.594,0.826,32.654,-72.998,-49.927
-0.522,0.432,0.674,35.217,-74.707,-52.979
-0.534,0.311,0.926,23.315,-83.557,-52.124
-0.510,0.460,1.038,7.385,-72.083,-37.415
-0.483,0.558,0.850,-2.014,-58.167,-34.241
-0.483,0.608,0.595,-0.671,-55.969,-33.936
-0.461,0.605,0.640,10.620,-64.209,-36.316
-0.451,0.493,0.786,26.428,-68.848,-39.795
-0.451,0.354,0.943,27.466,-65.125,-34.973
-0.439,0.514,0.919,24.353,-58.899,-23.437
-0.427,0.597,0.924,16.907,-51.453,-24.658
-0.424,0.626,0.754,17.883,-41.382,-26.245
-0.415,0.401,0.897,22.217,-43.030,-29.785
-0.423,0.503,0.698,31.433,-35.583,-21.118
-0.424,0.474,0.809,33.997,-37.964,-18.799
-0.415,0.492,0.855,35.156,-36.560,-16.357
-0.403,0.527,0.815,35.461,-28.687,-14.893
-0.372,0.482,0.862,29.419,-26.611,-15.930
-0.375,0.395,0.829,17.334,-18.066,-12.817
-0.377,0.603,0.675,8.301,-12.634,-3.540
-0.386,0.552,0.757,3.662,-15.686,-5.493
-0.384,0.560,0.863,1.770,-13.733,-2.625
-0.369,0.633,0.834,3.296,-9.399,-0.916
-0.365,0.666,0.708,8.911,-2.869,-2.441
-0.379,0.592,0.787,7.507,-6.958,-3.601
-0.374,0.650,0.789,4.700,-0.183,0.000
-0.385,0.687,0.750,5.005,2.136,0.610
-0.402,0.704,0.668,7.385,4.700,-0.793
-0.401,0.667,0.676,7.874,4.517,-2.075
-0.404,0.642,0.592,6.714,6.958,-2.014
-0.400,0.626,0.610,4.028,5.676,-0.427
-0.409,0.631,0.505,-14.038,4.883,1.953
-0.391,0.665,0.656,-5.554,0.671,3.967
-0.382,0.715,0.631,-3.784,5.737,4.089
-0.390,0.695,0.594,-1.282,8.118,1.648
-0.395,0.680,0.561,0.366,8.789,0.977
-0.399,0.668,0.514,0.305,7.568,1.099
-0.399,0.661,0.551,0.183,6.714,1.587
-0.397,0.657,0.532,0.854,6.897,2.014
-0.394,0.674,0.507,4.150,7.446,2.625
-0.394,0.689,0.517,5.798,4.944,2.502
-0.388,0.697,0.523,5.066,4.456,2.319
-0.397,0.648,0.528,1.160,4.944,1.221
-0.400,0.679,0.564,1.221,3.418,3.174
-0.397,0.692,0.589,1.831,3.296,3.113
-0.400,0.698,0.491,3.235,6.531,2.014
-0.398,0.667,0.501,1.953,3.174,1.831
-0.396,0.698,0.530,1.282,1.526,2.869
-0.396,0.682,0.574,0.793,0.671,2.319
-0.396,0.686,0.549,0.916,2.869,3.113
-0.397,0.708,0.578,0.488,1.160,3.662
-0.399,0.700,0.548,1.648,3.052,2.502
-0.394,0.699,0.581,1.465,1.892,2.136
-0.398,0.715,0.504,2.502,3.845,2.014
-0.396,0.711,0.535,1.404,0.671,0.977
-0.393,0.716,0.536,0.977,0.793,1.160
-0.392,0.727,0.551,1.892,0.183,0.916
-0.391,0.694,0.605,2.502,0.000,-0.244
-0.393,0.701,0.582,3.845,1.343,0.305
-0.393,0.695,0.604,3.723,1.038,-0.061
-0.396,0.700,0.570,3.601,2.991,0.488
-0.397,0.717,0.514,2.991,2.014,0.244
-0.401,0.711,0.556,2.075,-0.183,-0.061
-0.399,0.706,0.572,1.587,0.305,-0.305
-0.396,0.673,0.614,1.404,-0.183,-0.793
-0.389,0.683,0.604,2.686,0.732,-0.977
-0.393,0.705,0.543,5.432,1.892,-1.160
-0.402,0.649,0.556,3.784,0.610,-2.563
-0.399,0.638,0.564,2.136,0.854,-1.831
-0.401,0.647,0.578,-0.488,0.488,0.000
-0.398,0.699,0.551,-0.916,0.244,1.343
-0.398,0.700,0.569,-1.038,-0.549,0.366
-0.391,0.717,0.580,-0.244,-0.244,-0.183
-0.393,0.696,0.544,2.136,0.000,-1.831
-0.392,0.674,0.590,2.563,-1.831,-2.380
-0.389,0.650,0.630,3.479,-0.671,-2.380
-0.392,0.632,0.582,2.258,1.343,-1.099
-0.391,0.671,0.556,0.610,0.427,0.977
-0.390,0.692,0.568,-0.366,-0.366,1.587

-1.034,1.227,0.505,-41.199,-178.284,-50.232
-1.091,1.105,0.619,-26.794,-182.068,-63.477
-1.154,0.785,0.643,-18.616,-178.894,-80.139
-1.185,0.578,0.664,-27.649,-178.162,-84.656
-1.175,0.203,0.789,-34.302,-184.387,-85.510
-1.145,0.067,0.884,-37.415,-185.608,-78.247
-1.089,0.253,0.865,-31.494,-180.542,-48.340
-1.097,0.843,0.918,-5.371,-183.899,-33.630
-1.083,0.880,1.045,24.963,-184.509,-58.044
-1.063,0.604,1.097,31.433,-177.551,-71.289
-1.030,0.254,1.268,18.127,-171.326,-72.449
-0.981,0.547,1.035,16.785,-150.574,-53.772
-0.993,0.576,0.941,18.555,-147.644,-54.199
-0.993,0.544,0.947,23.560,-149.963,-55.908
-0.920,0.674,0.857,37.170,-148.743,-54.504
-0.915,0.438,0.963,36.316,-151.672,-62.012
-0.842,0.428,1.245,21.912,-151.367,-50.415
-0.812,0.524,1.445,-3.357,-140.076,-40.588
-0.806,0.893,1.146,-5.920,-113.831,-34.485
-0.763,0.950,1.137,1.770,-113.831,-41.809
-0.715,0.846,0.877,35.828,-106.384,-62.012
-0.701,0.081,1.302,42.175,-116.455,-75.684
-0.653,0.287,1.166,40.283,-91.492,-39.368
-0.623,0.690,1.095,30.273,-91.736,-39.368
-0.614,0.810,0.887,31.799,-78.613,-45.227
-0.617,0.667,0.820,45.837,-79.102,-59.265
-0.593,0.542,0.767,56.030,-78.064,-64.514
-0.562,0.296,0.743,68.420,-79.224,-67.383
-0.512,0.359,0.842,52.734,-79.041,-51.941
-0.497,0.380,0.928,39.124,-77.515,-46.814
-0.493,0.349,1.045,11.841,-69.092,-39.185
-0.487,0.620,0.932,2.563,-59.204,-28.931
-0.464,0.618,1.014,11.353,-56.580,-34.668
-0.467,0.579,0.956,23.804,-34.973,-41.321
-0.452,0.462,0.926,46.021,-47.058,-42.847
-0.449,0.317,0.924,56.641,-39.551,-40.955
-0.432,0.343,0.834,54.077,-34.241,-30.701
-0.407,0.382,0.820,43.701,-32.654,-27.649
-0.398,0.391,0.866,20.203,-29.968,-21.545
-0.394,0.378,0.859,12.756,-23.987,-17.273
-0.397,0.357,0.708,14.526,-18.677,-14.771
-0.382,0.517,0.752,19.592,-24.902,-5.676
-0.381,0.580,0.720,28.625,-25.574,-5.737
-0.367,0.575,0.886,29.541,-30.457,-7.202
-0.360,0.545,0.904,27.161,-18.311,-8.606
-0.341,0.548,0.859,13.916,-11.047,-5.920
-0.344,0.560,0.830,10.803,-7.507,-4.272
-0.351,0.573,0.773,7.202,-2.869,-0.977
-0.355,0.692,0.788,9.644,-1.709,1.221
-0.362,0.681,0.717,12.085,1.465,-0.427
-0.372,0.670,0.751,14.648,-0.366,-1.099
-0.380,0.654,0.676,13.916,4.211,-2.014
-0.382,0.617,0.651,10.010,5.615,-0.610
-0.374,0.644,0.604,0.244,5.981,1.099
-0.381,0.671,0.581,-4.883,5.615,3.357
-0.381,0.698,0.612,-4.639,3.479,3.967
-0.372,0.730,0.656,-2.808,4.883,3.479
-0.379,0.740,0.548,1.587,8.850,0.916
-0.385,0.701,0.542,2.869,7.263,-0.916
-0.392,0.660,0.562,2.258,5.493,-0.427
-0.397,0.675,0.538,0.244,5.737,1.770
-0.383,0.694,0.590,-0.488,4.028,2.747
-0.378,0.738,0.528,-0.427,7.263,2.747
-0.379,0.711,0.549,-0.427,4.456,0.366
-0.380,0.698,0.561,0.305,5.127,0.000
-0.387,0.687,0.523,2.930,5.737,-0.488
-0.385,0.682,0.549,4.822,3.601,0.427
-0.380,0.706,0.537,5.981,4.150,1.160
-0.384,0.706,0.550,3.906,4.456,-0.061
-0.383,0.707,0.546,1.587,3.967,-0.183
-0.378,0.695,0.576,1.038,3.113,-0.549
-0.383,0.661,0.549,3.113,4.944,-1.038
-0.389,0.648,0.522,4.089,4.333,0.122
-0.386,0.655,0.527,3.906,3.540,0.977
-0.385,0.688,0.531,2.319,2.991,2.197
-0.383,0.694,0.533,1.587,2.991,1.587
-0.385,0.714,0.525,0.183,2.808,1.099
-0.383,0.710,0.548,0.610,0.977,0.000
-0.380,0.718,0.553,1.038,1.038,-0.610
-0.383,0.691,0.571,2.136,0.854,-1.221
-0.385,0.649,0.584,2.869,1.404,-1.099
-0.391,0.659,0.535,2.197,2.075,0.549
-0.385,0.688,0.588,1.526,0.000,1.160
-0.386,0.709,0.542,0.916,2.502,0.793
-0.381,0.712,0.564,1.099,0.488,0.244
-0.379,0.722,0.538,1.892,1.282,-0.305
-0.382,0.687,0.569,2.319,-0.549,-1.648
-0.386,0.657,0.587,1.892,-0.610,-1.465
-0.383,0.634,0.608,1.526,-0.671,-1.343
-0.379,0.652,0.574,0.549,1.587,0.366
-0.379,0.653,0.574,-3.357,0.427,1.709
-0.379,0.664,0.602,-6.226,-0.122,2.625
-0.379,0.743,0.573,-5.188,1.709,3.296
-0.377,0.757,0.579,2.197,0.000,-0.366
-0.386,0.704,0.530,4.578,0.977,-2.319
-0.384,0.644,0.610,2.686,-2.625,-2.136
-0.383,0.665,0.578,1.343,0.610,0.122
-0.382,0.689,0.593,0.061,0.244,0.671
-0.373,0.710,0.604,0.061,0.793,0.549
-0.375,0.717,0.547,2.380,1.343,-0.305

-0.763,1.293,-3.999,-35.522,125.610,26.489
-1.262,1.448,-4.000,-77.820,53.894,24.292
-2.027,1.926,-2.911,-190.125,-323.853,17.395
-2.149,1.767,-0.840,-205.322,-429.932,-5.493
-1.082,0.579,4.000,-98.816,-576.111,-92.957
-0.974,-1.609,0.241,97.900,56.213,-178.711
-1.235,0.356,-4.000,45.349,253.784,-29.480
-1.477,3.717,-0.741,-139.587,-395.569,227.600
-1.297,2.360,1.929,-82.520,-325.378,-20.813
-1.258,1.095,1.417,3.723,-209.412,-72.388
-1.317,0.562,0.574,-1.892,-163.635,-79.102
-1.450,1.083,0.231,-39.246,-183.105,-36.499
-1.363,0.954,1.280,-61.096,-221.130,-39.429
-1.347,0.878,1.377,-58.472,-206.055,-32.532
-1.403,1.332,0.903,-17.761,-178.650,-31.433
-1.416,0.994,1.033,20.630,-204.468,-60.486
-1.362,0.682,1.359,25.574,-214.722,-71.533
-1.262,0.273,1.674,9.155,-199.219,-68.665
-1.183,0.543,1.016,3.235,-162.415,-48.279
-1.166,0.629,0.964,12.878,-168.884,-44.006
-1.147,0.768,0.967,29.602,-168.762,-46.753
-1.113,0.952,1.025,78.796,-170.715,-60.181
-1.082,0.320,1.434,78.308,-170.593,-86.975
-1.049,0.329,1.372,65.491,-156.189,-81.299
-1.000,0.148,1.363,5.615,-137.939,-69.519
-0.922,0.476,1.138,-11.536,-122.253,-46.570
-0.908,0.767,1.024,21.301,-121.155,-45.227
-0.871,0.806,0.961,49.072,-120.605,-52.917
-0.851,0.570,0.980,78.918,-119.568,-73.486
-0.790,0.262,1.089,72.754,-115.417,-78.491
-0.763,0.169,1.147,60.669,-95.459,-64.941
-0.726,0.375,1.073,49.622,-98.206,-57.312
-0.704,0.603,0.916,55.176,-91.858,-52.490
-0.694,0.694,0.897,68.665,-90.393,-59.570
-0.698,0.663,0.736,73.669,-89.172,-70.068
-0.657,0.205,0.859,66.650,-90.698,-81.177
-0.634,0.086,0.928,44.617,-85.205,-66.040
-0.611,0.245,0.907,35.645,-75.806,-45.349
-0.589,0.512,0.782,26.062,-73.914,-42.603
-0.591,0.678,0.680,35.034,-70.374,-44.739
-0.578,0.582,0.667,47.607,-70.557,-56.213
-0.583,0.533,0.759,53.406,-72.998,-59.326
-0.561,0.408,0.695,58.044,-67.749,-60.303
-0.529,0.394,0.811,55.237,-69.519,-54.626
-0.508,0.390,0.861,58.044,-63.354,-49.622
-0.502,0.516,0.772,63.904,-60.852,-47.058
-0.497,0.302,0.901,64.575,-62.927,-51.941
-0.469,0.227,0.991,49.194,-57.007,-43.030
-0.435,0.253,1.097,35.278,-54.077,-37.048
-0.418,0.158,1.057,7.812,-41.199,-29.053
-0.400,0.237,1.116,-22.217,-32.593,-12.390
-0.402,0.365,1.057,-27.466,-23.560,-2.869
-0.385,0.500,1.036,-21.606,-22.095,-2.869
-0.385,0.527,1.008,-1.770,-16.724,-8.240
-0.377,0.488,0.939,10.193,-11.658,-10.681
-0.373,0.541,0.929,15.503,-6.897,-9.338
-0.387,0.467,0.822,13.306,-0.549,-8.423
-0.388,0.488,0.834,6.470,2.869,-1.770
-0.397,0.532,0.743,3.967,4.639,0.122
-0.398,0.642,0.685,3.235,6.592,3.845
-0.407,0.675,0.614,6.165,6.958,2.136
-0.412,0.663,0.614,7.385,6.409,1.038
-0.415,0.651,0.625,5.981,6.348,0.610
-0.414,0.638,0.586,3.052,9.277,0.366
-0.418,0.641,0.449,3.052,11.169,2.014
-0.415,0.674,0.487,2.869,7.385,3.113
-0.414,0.666,0.500,3.906,6.226,2.075
-0.408,0.624,0.518,5.005,4.822,2.380
-0.405,0.693,0.487,5.615,4.578,4.944
-0.405,0.709,0.506,2.869,2.686,3.296
-0.403,0.698,0.522,2.075,2.930,2.136
-0.398,0.651,0.557,-0.793,2.014,1.404
-0.404,0.649,0.503,-0.183,3.784,3.052
-0.396,0.701,0.601,-0.122,-0.122,4.517
-0.395,0.689,0.657,0.122,0.732,2.563
-0.399,0.649,0.540,3.235,5.554,1.953
-0.400,0.656,0.607,3.357,3.113,3.296
-0.409,0.682,0.559,5.188,4.089,4.089
-0.411,0.693,0.552,5.493,3.296,4.272
-0.414,0.678,0.588,4.272,2.380,3.357
-0.405,0.686,0.599,3.113,2.380,4.211
-0.396,0.706,0.649,1.831,4.883,4.150
-0.403,0.723,0.530,2.747,6.714,3.357
-0.396,0.719,0.612,2.258,2.380,1.526
-0.415,0.707,0.531,3.662,4.639,0.488
-0.414,0.673,0.636,2.197,1.953,0.122
-0.414,0.655,0.601,2.747,4.578,0.366
-0.413,0.623,0.589,2.380,4.822,1.892
-0.401,0.667,0.617,2.136,4.944,4.517
-0.402,0.692,0.577,4.089,6.287,3.967
-0.404,0.728,0.515,4.578,6.531,3.113
-0.410,0.688,0.552,2.625,1.770,0.244
-0.408,0.662,0.581,2.625,2.991,0.244
-0.410,0.655,0.582,2.625,2.808,0.488
-0.411,0.646,0.568,1.465,3.357,1.343
-0.405,0.692,0.605,-0.671,2.808,2.869
-0.407,0.716,0.543,1.465,4.639,1.526
-0.411,0.714,0.529,5.249,2.380,-0.061
-0.414,0.701,0.563,5.798,0.977,-0.793
-0.413,0.651,0.579,5.127,1.282,-1.587

-1.046,1.024,-0.549,-20.996,-167.969,-35.339
-1.096,1.031,-0.370,-13.123,-184.021,-39.612
-1.241,1.001,-0.395,0.427,-196.106,-48.950
-1.323,0.926,-0.276,-0.854,-208.252,-53.772
-1.483,0.914,-0.134,-3.601,-225.220,-57.556
-1.566,0.811,0.147,-5.859,-242.554,-62.378
-1.720,0.781,0.272,-2.441,-253.784,-62.012
-1.806,0.719,0.401,-0.916,-262.146,-62.683
-1.914,0.595,0.737,-0.122,-273.987,-61.829
-1.943,0.674,1.199,10.742,-278.320,-57.556
-1.911,0.687,1.326,39.612,-264.893,-69.641
-1.850,0.332,1.270,44.067,-252.686,-79.651
-1.726,0.060,1.399,41.077,-245.728,-76.355
-1.618,0.138,1.556,39.673,-241.150,-67.749
-1.464,0.093,1.444,46.631,-212.830,-62.683
-1.429,0.301,1.491,36.682,-203.308,-46.814
-1.373,0.535,1.552,45.166,-187.866,-47.180
-1.223,0.475,1.594,56.458,-181.091,-55.725
-1.068,0.497,1.358,96.008,-161.682,-66.895
-1.001,0.108,1.358,98.816,-158.264,-79.407
-0.901,-0.128,1.674,82.031,-155.640,-63.904
-0.820,0.437,1.778,65.674,-132.812,-33.386
-0.774,0.772,1.457,70.496,-105.225,-37.476
-0.755,0.842,1.242,81.543,-97.717,-45.715
-0.695,0.392,1.383,86.060,-101.807,-68.909
-0.665,0.238,1.472,79.529,-97.229,-68.970
-0.591,0.130,1.621,52.673,-81.055,-56.458
-0.556,0.434,1.226,45.776,-56.519,-41.016
-0.539,0.526,1.229,45.227,-52.551,-43.579
-0.499,0.523,1.033,47.119,-49.072,-48.462
-0.450,0.317,1.240,47.607,-50.964,-51.270
-0.435,0.276,1.272,48.340,-37.048,-44.312
-0.430,0.343,1.185,47.424,-28.564,-39.124
-0.412,0.537,1.075,46.265,-21.240,-34.302
-0.413,0.432,0.964,34.851,-12.939,-36.438
-0.412,0.456,0.854,33.325,-13.855,-32.349
-0.400,0.479,1.014,30.029,-11.902,-30.762
-0.385,0.453,0.814,36.133,-2.258,-29.785
-0.385,0.283,0.835,21.667,-1.953,-24.597
-0.385,0.373,0.742,13.794,1.343,-16.113
-0.379,0.545,0.706,3.174,-0.061,-7.385
-0.372,0.657,0.723,3.174,1.282,-7.324
-0.374,0.700,0.680,4.395,3.479,-11.963
-0.375,0.476,0.694,6.897,3.479,-17.578
-0.376,0.462,0.644,7.935,5.066,-13.855
-0.376,0.503,0.648,5.737,3.540,-6.104
-0.377,0.577,0.628,-0.488,5.798,-0.732
-0.381,0.613,0.602,-3.113,6.897,0.427
-0.379,0.651,0.616,-8.118,5.981,0.793
-0.387,0.691,0.597,-6.165,6.897,0.977
-0.380,0.698,0.640,1.465,5.676,-2.258
-0.376,0.627,0.521,7.629,9.216,-5.066
-0.364,0.603,0.591,5.798,6.104,-4.272
-0.375,0.642,0.524,4.883,9.094,-0.488
-0.377,0.683,0.600,5.371,5.127,0.732
-0.390,0.714,0.489,6.714,6.409,0.732
-0.386,0.743,0.599,6.836,2.136,-0.671
-0.387,0.712,0.578,10.315,4.639,-4.028
-0.380,0.646,0.522,7.507,6.226,-5.371
-0.383,0.630,0.473,4.639,6.348,-4.333
-0.375,0.638,0.596,-0.854,0.366,-1.221
-0.372,0.712,0.640,4.639,1.648,0.244
-0.368,0.731,0.654,7.996,2.380,-1.770
-0.372,0.678,0.560,8.118,6.409,-3.784
-0.371,0.614,0.590,3.662,4.761,-3.052
-0.375,0.603,0.585,2.075,5.554,0.427
-0.371,0.680,0.577,-0.488,4.150,2.258
-0.367,0.718,0.640,-1.099,3.540,1.770
-0.366,0.713,0.603,2.502,5.188,-0.732
-0.365,0.656,0.568,3.906,5.737,-1.221
-0.361,0.689,0.603,3.113,3.418,0.305
-0.367,0.730,0.553,3.784,4.700,0.549
-0.367,0.696,0.605,4.089,2.014,-1.770
-0.366,0.656,0.625,3.052,2.258,-2.686
-0.370,0.634,0.604,1.160,3.845,-1.038
-0.363,0.663,0.619,-0.854,4.028,0.977
-0.371,0.669,0.554,-0.610,5.981,1.587
-0.367,0.714,0.558,-1.038,3.479,2.136
-0.369,0.738,0.606,-0.427,1.831,0.549
-0.364,0.750,0.583,2.930,2.563,-0.549
-0.361,0.670,0.612,3.784,2.502,-3.540
-0.367,0.633,0.614,2.380,3.357,-3.174
-0.364,0.609,0.635,0.061,4.333,-0.549
-0.366,0.671,0.610,-1.343,5.371,3.296
-0.351,0.730,0.588,-1.831,5.493,4.272
-0.355,0.771,0.535,-0.488,5.371,0.610
-0.356,0.729,0.538,1.221,2.441,-3.296
-0.355,0.682,0.584,1.282,0.916,-4.578
-0.356,0.606,0.677,0.427,0.244,-3.967
-0.354,0.595,0.656,-0.977,3.174,-0.183
-0.352,0.611,0.679,-2.258,3.418,1.831
-0.357,0.695,0.569,-2.991,8.057,3.845
-0.343,0.738,0.594,-1.343,3.479,1.831
-0.344,0.744,0.575,1.831,3.967,-1.953
-0.343,0.686,0.632,4.761,1.404,-3.601
-0.353,0.605,0.687,3.235,3.418,-4.089
-0.349,0.578,0.685,2.869,5.005,-2.563
-0.355,0.635,0.513,1.526,9.216,1.587
-0.336,0.677,0.658,-3.113,1.160,2.991
-0.333,0.719,0.615,-1.404,3.540,2.808

