accelerometerX,accelerometerY,accelerometerZ,gyroscopeX,gyroscopeY,gyroscopeZ
-0.458,0.353,2.780,-25.940,-162.354,102.722
-0.491,0.464,3.126,-14.160,-136.780,102.173
-0.459,0.507,3.289,-11.719,-86.487,88.562
-0.449,0.482,3.236,-14.465,-18.860,63.477
-0.462,0.379,2.982,-19.836,53.345,29.602
-0.457,0.160,2.684,-31.189,114.807,-7.935
-0.491,-0.119,2.496,-42.725,158.875,-39.185
-0.539,-0.340,2.455,-53.040,183.960,-56.885
-0.613,-0.490,2.590,-56.702,195.801,-58.044
-0.692,-0.596,2.816,-66.589,209.290,-47.424
-0.778,-0.688,2.955,-88.196,249.451,-37.964
-0.937,-0.742,2.978,-108.032,320.496,-32.837
-1.112,-0.695,2.724,-123.291,408.386,-25.146
-1.157,-0.541,2.056,-119.995,504.272,-22.888
-1.250,-0.560,1.432,-121.399,580.139,-39.124
-1.250,-0.644,0.907,-138.733,632.690,-53.589
-1.243,-0.729,0.490,-144.592,665.833,-56.641
-1.126,-0.788,0.121,-143.188,658.386,-45.593
-1.067,-0.770,-0.181,-144.775,633.179,-24.231
-1.046,-0.712,-0.462,-133.789,599.060,3.113
-1.045,-0.632,-0.820,-115.234,568.665,35.156
-1.047,-0.467,-1.356,-100.769,548.462,73.914
-0.903,-0.125,-1.895,-84.717,532.532,115.417
-0.799,0.284,-2.453,-58.777,471.191,143.982
-0.682,0.672,-2.724,-40.039,333.862,149.231
-0.496,0.907,-2.608,-30.518,192.200,121.033
-0.398,0.904,-2.203,-32.776,55.176,61.951
-0.333,0.719,-1.797,-35.583,-40.161,-7.874
-0.255,0.446,-1.551,-36.804,-87.158,-68.359
-0.169,0.218,-1.456,-39.124,-107.300,-104.553
-0.070,0.072,-1.426,-21.362,-117.920,-115.051
0.014,-0.008,-1.370,4.517,-130.249,-111.267
0.035,-0.068,-1.297,22.034,-145.203,-103.577
0.038,-0.091,-1.218,36.926,-158.325,-93.018
0.070,-0.104,-1.210,44.800,-169.006,-77.454
0.012,-0.017,-1.226,37.048,-183.716,-55.359
-0.057,0.088,-1.154,26.306,-211.609,-37.048
-0.079,0.105,-0.949,25.757,-253.540,-30.823
-0.129,0.063,-0.599,32.837,-305.908,-33.752
-0.046,0.003,-0.165,37.415,-362.305,-39.673
-0.123,-0.040,0.098,35.706,-429.626,-38.879
-0.096,-0.066,0.675,53.772,-457.947,-29.663
-0.013,0.022,1.051,99.243,-454.651,-13.672
-0.018,0.249,0.958,151.855,-404.663,-4.944
-0.159,0.427,0.816,179.260,-391.968,-29.907
-0.176,0.320,1.076,198.730,-423.828,-82.336
-0.104,-0.012,1.272,201.538,-432.068,-134.827
-0.239,-0.387,1.525,167.847,-417.969,-165.344
-0.275,-0.750,1.860,127.380,-393.616,-163.330
-0.297,-0.954,2.186,89.478,-355.835,-135.498
-0.292,-0.950,2.456,52.917,-303.894,-94.055
-0.255,-0.783,2.588,14.893,-238.220,-48.584
-0.155,-0.473,2.234,-12.512,-162.109,-15.198
-0.220,-0.286,1.939,-31.982,-127.502,-10.193
-0.219,-0.303,1.897,-44.067,-128.723,-30.090
-0.208,-0.503,2.013,-49.744,-139.099,-54.565
-0.195,-0.657,2.182,-51.208,-138.184,-58.167
-0.187,-0.684,2.295,-43.945,-120.850,-39.490
-0.176,-0.561,2.294,-28.015,-94.788,-9.155
-0.153,-0.360,2.197,-4.578,-68.848,20.020
-0.121,-0.173,2.040,18.677,-46.570,37.354
-0.036,-0.020,1.770,30.396,-27.649,38.818
-0.056,0.013,1.609,28.870,-22.339,26.367
-0.004,-0.021,1.621,20.325,-26.855,11.841
-0.009,-0.069,1.621,13.306,-20.752,2.747
-0.003,-0.107,1.596,4.578,-6.287,-0.427
0.027,-0.098,1.519,-1.526,15.869,-0.061
0.027,-0.114,1.356,-11.719,40.771,0.061
0.053,-0.109,1.175,-30.090,59.570,3.357
0.155,-0.046,0.950,-28.198,69.946,11.047
0.175,-0.067,0.768,-18.982,75.989,13.855
0.061,-0.144,0.718,-38.391,62.317,1.770
0.035,-0.202,0.861,-63.538,34.729,-10.315
0.047,-0.207,1.019,-46.875,6.958,-4.517
0.008,-0.135,1.145,-26.184,-6.104,14.160
-0.001,0.003,1.219,-12.451,-4.822,31.799
0.002,0.141,1.232,-0.488,5.798,41.199
0.009,0.207,1.141,9.705,22.400,39.795
0.027,0.216,0.986,11.230,38.513,32.654
0.045,0.182,0.836,12.573,46.936,22.095
0.076,0.098,0.729,15.320,45.410,6.714
0.097,-0.015,0.699,12.512,35.461,-8.789
0.114,-0.119,0.726,6.836,22.461,-19.836
0.101,-0.192,0.776,3.723,12.390,-22.339
0.102,-0.213,0.823,1.099,7.812,-16.541
0.118,-0.200,0.861,0.854,6.409,-6.226
0.116,-0.159,0.883,2.625,6.775,4.456
0.115,-0.098,0.885,2.991,6.714,13.672
0.120,-0.038,0.874,4.517,4.028,19.226
0.117,0.015,0.883,3.784,-2.075,21.240
0.121,0.047,0.923,2.197,-9.705,19.592
0.118,0.055,0.979,0.061,-16.418,13.733
0.118,0.048,1.021,-1.892,-18.921,6.165
0.115,0.022,1.043,-1.221,-16.174,-0.183
0.111,-0.002,1.061,-1.709,-10.071,-4.700
0.106,-0.027,1.068,-1.038,-3.784,-7.751
0.100,-0.055,1.049,3.296,1.526,-9.460
0.097,-0.082,1.009,7.507,6.042,-9.705
0.084,-0.093,0.967,8.423,9.277,-7.935
0.084,-0.105,0.928,8.545,10.742,-5.676

-0.240,-0.545,1.909,94.604,52.795,32.715
-0.304,-0.663,1.936,74.768,84.717,26.794
-0.337,-0.809,2.024,38.879,112.061,19.775
-0.393,-0.997,2.253,2.014,129.822,13.672
-0.463,-1.113,2.549,-19.592,137.207,15.747
-0.418,-1.168,2.762,-28.992,146.851,31.311
-0.470,-1.222,2.948,-34.668,182.434,54.321
-0.604,-1.154,3.071,-64.392,228.943,77.759
-0.726,-0.989,2.966,-91.675,288.147,103.027
-0.780,-0.806,2.742,-91.309,359.070,125.488
-0.852,-0.556,2.484,-105.835,425.354,142.883
-0.903,-0.373,2.131,-132.812,488.098,149.597
-0.898,-0.385,1.670,-153.809,557.312,141.113
-1.003,-0.519,1.148,-178.101,639.343,121.765
-1.109,-0.657,0.652,-220.154,730.347,100.281
-1.334,-0.660,0.313,-266.602,828.064,89.722
-1.273,-0.645,-0.560,-289.429,907.043,86.304
-1.079,-0.515,-1.411,-318.115,918.823,80.627
-1.177,-0.370,-1.756,-309.204,826.111,85.327
-1.246,-0.161,-2.053,-198.914,697.693,111.816
-1.078,0.122,-2.248,-49.194,554.321,145.691
-0.917,0.432,-2.281,69.946,426.392,169.067
-0.813,0.705,-2.223,160.339,299.561,169.617
-0.644,0.906,-2.115,220.215,181.519,153.931
-0.407,0.958,-1.910,238.464,76.782,117.554
-0.328,0.885,-1.604,248.352,-7.812,66.101
-0.089,0.670,-1.468,246.033,-65.002,17.883
0.082,0.474,-1.327,198.364,-105.652,-9.155
0.061,0.428,-1.158,123.657,-132.080,-11.719
0.060,0.492,-1.042,50.049,-137.756,3.479
0.137,0.681,-0.992,-5.188,-130.737,23.865
0.196,0.853,-1.002,-25.452,-126.221,29.541
0.174,0.933,-1.006,-16.968,-131.836,14.343
0.140,0.914,-1.000,1.099,-146.484,-15.381
0.117,0.794,-0.988,9.888,-165.955,-51.636
0.081,0.632,-0.989,9.888,-188.782,-84.412
0.072,0.506,-0.975,-0.366,-212.280,-104.797
0.037,0.407,-0.932,-20.996,-238.098,-113.342
-0.083,0.300,-0.853,-43.335,-267.700,-116.577
-0.123,0.140,-0.758,-48.950,-298.523,-119.446
-0.213,-0.032,-0.602,-36.499,-338.135,-123.169
-0.079,-0.083,-0.484,-4.456,-395.874,-125.916
-0.154,-0.195,0.021,23.560,-469.910,-135.925
-0.103,-0.323,0.306,24.841,-575.500,-129.395
0.042,-0.104,0.959,9.155,-616.821,-87.769
-0.214,0.277,1.225,12.146,-645.203,-69.885
-0.371,0.184,1.477,81.604,-655.151,-105.408
-0.271,0.129,1.489,160.156,-613.708,-154.236
-0.298,-0.172,1.394,182.922,-551.208,-216.553
-0.326,-0.587,1.458,117.065,-489.624,-260.803
0.169,-1.123,1.607,28.442,-420.471,-252.197
-0.668,-1.941,1.768,63.171,-337.952,-175.049
-0.599,-1.337,1.514,130.676,-258.057,-30.396
-0.285,-0.708,1.388,99.609,-213.928,49.194
-0.311,-0.432,1.431,76.965,-215.210,54.138
-0.462,-0.288,1.581,32.898,-228.821,35.889
-0.422,-0.310,1.738,23.804,-237.305,13.672
-0.362,-0.382,1.893,30.273,-240.906,0.671
-0.343,-0.360,2.046,9.460,-231.812,1.404
-0.259,-0.303,2.111,-8.728,-204.285,1.038
-0.239,-0.352,2.186,-24.231,-161.011,-10.498
-0.225,-0.436,2.174,-42.480,-105.225,-25.391
-0.238,-0.463,2.020,-59.998,-48.401,-34.302
-0.222,-0.429,1.801,-64.453,-11.475,-35.278
-0.228,-0.414,1.649,-64.880,3.296,-32.104
-0.220,-0.369,1.591,-60.669,0.366,-21.240
-0.197,-0.251,1.604,-55.664,-11.292,-3.418
-0.168,-0.080,1.641,-48.096,-18.982,11.719
-0.156,-0.001,1.631,-16.907,-15.442,18.250
-0.138,0.072,1.581,1.221,-2.869,18.799
-0.136,0.110,1.491,0.305,12.756,13.367
-0.114,0.083,1.360,-0.183,27.527,3.296
-0.093,0.012,1.220,-1.221,38.696,-7.080
-0.097,-0.063,1.090,-5.493,46.570,-15.381
-0.094,-0.120,0.984,-11.597,50.781,-18.677
-0.093,-0.146,0.921,-14.465,49.805,-16.907
-0.074,-0.162,0.884,-11.230,45.410,-12.329
-0.059,-0.165,0.851,-4.761,39.490,-5.920
-0.044,-0.147,0.808,-0.122,34.546,1.099
-0.020,-0.115,0.759,1.953,31.555,7.446
0.005,-0.081,0.715,3.113,28.503,12.329
0.012,-0.042,0.711,-1.953,22.705,15.381
0.020,0.010,0.753,-12.390,12.329,15.686
0.025,0.030,0.813,-12.207,0.671,12.817
0.026,0.020,0.868,-7.202,-7.141,7.874
0.037,0.022,0.918,-9.827,-10.193,4.028
0.031,0.017,0.956,-8.484,-10.742,2.258
0.027,0.019,0.988,-5.676,-10.620,2.075
0.023,0.030,1.024,-2.747,-10.010,1.831
0.015,0.019,1.051,4.639,-9.155,0.671
0.022,-0.013,1.051,8.789,-6.287,-2.197
0.024,-0.059,1.015,9.705,-1.404,-6.165
0.022,-0.103,0.969,10.132,2.747,-8.423
0.017,-0.134,0.940,6.836,2.991,-8.667
0.018,-0.146,0.955,5.066,-1.587,-6.592
0.018,-0.138,0.992,7.019,-7.874,-2.686
0.024,-0.105,1.024,10.071,-10.986,0.854
0.020,-0.076,1.043,12.878,-9.644,3.296
0.016,-0.057,1.053,7.935,-5.493,2.197
0.008,-0.072,1.048,0.793,-1.160,-1.770

-0.604,-0.135,2.509,-35.461,-32.043,-6.653
-0.662,-0.093,2.780,-31.921,-15.564,-3.418
-0.701,-0.054,2.922,-22.095,23.499,-1.404
-0.677,-0.143,2.892,-5.920,79.895,-7.812
-0.698,-0.320,2.807,-10.681,146.484,-23.560
-0.792,-0.513,2.708,-45.044,211.304,-41.260
-0.826,-0.722,2.597,-70.068,264.893,-52.124
-0.921,-0.871,2.499,-61.523,307.983,-42.236
-0.949,-0.854,2.341,-36.621,346.497,0.244
-0.987,-0.704,2.158,0.427,388.184,62.256
-1.022,-0.427,1.923,17.029,431.091,123.718
-0.971,-0.146,1.581,26.001,479.309,170.898
-0.855,0.063,1.210,43.762,530.762,189.575
-0.820,0.072,0.744,41.321,578.918,171.570
-0.798,-0.022,0.294,0.488,623.535,138.489
-0.715,-0.116,-0.174,-37.842,653.809,107.483
-0.597,-0.160,-0.697,-46.265,662.659,86.548
-0.467,-0.128,-1.242,-42.175,641.113,85.571
-0.419,0.136,-1.874,-52.307,585.999,96.802
-0.145,0.364,-2.455,-46.814,488.281,84.534
-0.046,0.371,-2.587,-52.124,277.893,61.646
0.064,0.232,-2.097,-50.171,79.041,50.720
0.217,0.234,-1.408,-45.288,-81.482,54.688
0.373,0.318,-0.754,-41.260,-185.913,59.814
0.394,0.410,-0.465,-48.340,-251.709,59.143
0.547,0.470,-0.069,-49.927,-255.981,50.781
0.730,0.486,0.055,-18.005,-179.626,31.677
0.814,0.472,-0.107,8.240,-97.595,12.329
0.746,0.494,-0.473,11.414,-21.545,1.892
0.722,0.559,-0.811,8.057,29.236,0.305
0.645,0.570,-1.108,11.047,42.603,-3.906
0.599,0.562,-1.263,9.705,21.790,-13.000
0.601,0.557,-1.261,8.606,-26.733,-24.475
0.553,0.584,-1.073,13.000,-96.558,-31.494
0.500,0.635,-0.750,16.724,-163.086,-36.011
0.510,0.684,-0.466,9.338,-203.796,-45.715
0.556,0.655,-0.267,-2.197,-218.689,-61.157
0.581,0.551,-0.123,-10.071,-214.539,-76.416
0.511,0.412,-0.058,-7.751,-197.083,-86.426
0.488,0.260,-0.120,-5.798,-175.171,-85.754
0.518,0.113,-0.254,-4.150,-163.391,-77.515
0.531,-0.026,-0.315,7.019,-169.373,-67.078
0.534,-0.178,-0.311,19.714,-183.594,-56.824
0.449,-0.328,-0.301,32.532,-196.533,-45.227
0.147,-0.438,-0.367,45.105,-208.496,-28.198
0.108,-0.469,-0.469,59.265,-232.422,-7.751
-0.210,-0.783,-0.043,66.833,-277.100,1.648
-0.296,-0.847,0.547,65.308,-314.392,29.663
-0.196,-0.357,0.281,94.482,-321.716,66.040
-0.572,-0.054,0.283,85.999,-360.718,43.945
-0.627,0.077,0.650,46.997,-451.599,6.653
-0.849,0.245,1.327,-6.287,-541.626,2.930
-0.854,0.486,2.119,-38.757,-596.375,26.672
-0.789,0.629,2.799,-23.682,-548.767,33.508
-0.614,0.391,3.098,11.658,-429.626,-0.793
-0.376,-0.078,2.886,20.081,-273.743,-43.030
-0.293,-0.878,2.290,37.048,-122.986,-69.214
-0.436,-1.187,1.607,38.513,-3.967,-50.537
-0.393,-0.845,0.869,25.818,46.509,4.822
-0.357,-0.463,0.523,10.498,5.127,40.833
-0.477,-0.173,0.709,-10.315,-90.271,56.580
-0.642,0.117,1.385,-17.883,-195.923,62.439
-0.664,0.336,2.146,-12.573,-263.428,59.692
-0.581,0.404,2.710,-0.305,-255.981,40.039
-0.524,0.344,2.916,4.395,-172.058,5.127
-0.511,0.183,2.536,2.075,-50.781,-26.123
-0.503,-0.033,1.905,-2.380,49.866,-47.791
-0.498,-0.231,1.373,-10.071,101.135,-57.129
-0.460,-0.359,1.073,-17.761,101.563,-55.542
-0.402,-0.414,0.967,-14.954,57.312,-42.480
-0.362,-0.348,1.087,-11.658,5.005,-20.081
-0.330,-0.188,1.301,-11.047,-28.931,0.549
-0.297,-0.050,1.445,-4.639,-36.194,12.268
-0.283,0.033,1.482,-0.671,-21.851,14.893
-0.263,0.064,1.395,2.258,-0.488,12.329
-0.236,0.056,1.250,5.127,17.761,9.216
-0.205,0.050,1.115,8.423,28.015,8.118
-0.177,0.061,1.000,9.521,31.921,8.667
-0.160,0.071,0.909,9.338,32.288,8.911
-0.158,0.094,0.871,4.944,27.466,8.179
-0.152,0.126,0.891,-2.258,18.005,7.385
-0.157,0.134,0.938,-5.066,9.216,4.395
-0.142,0.137,0.963,-6.409,5.676,0.854
-0.140,0.145,0.974,-3.601,5.798,-0.610
-0.124,0.130,0.962,0.061,8.667,-3.174
-0.116,0.083,0.929,1.465,12.878,-8.118
-0.117,0.031,0.885,2.014,15.991,-11.230
-0.110,-0.006,0.855,5.188,15.686,-10.803
-0.111,-0.019,0.859,8.057,12.512,-8.118
-0.120,-0.019,0.880,9.216,8.728,-5.554
-0.126,-0.020,0.892,8.789,6.531,-4.456
-0.125,-0.019,0.902,8.728,5.615,-3.845
-0.132,-0.037,0.897,9.155,4.639,-3.723
-0.134,-0.072,0.902,7.263,2.686,-4.700
-0.138,-0.101,0.928,5.798,-0.610,-4.272
-0.146,-0.104,0.962,5.127,-3.845,-1.404
-0.143,-0.068,0.990,5.005,-5.493,2.991
-0.143,-0.015,1.007,6.836,-6.042,6.836
-0.143,0.022,1.033,5.920,-6.042,6.836
-0.141,0.035,1.047,2.625,-4.639,4.028

-0.656,-0.351,2.147,24.231,-42.542,6.531
-0.715,-0.358,2.404,43.640,-47.424,14.526
-0.982,-0.374,2.671,65.918,-49.194,23.621
-1.000,-0.397,2.925,74.219,-32.959,30.029
-1.008,-0.445,3.026,77.942,13.428,33.813
-0.984,-0.459,2.975,68.848,79.041,41.138
-0.947,-0.380,2.904,43.640,152.405,52.063
-0.998,-0.243,2.870,11.108,218.445,57.800
-1.051,-0.142,2.866,-28.198,274.292,52.490
-1.100,-0.126,2.817,-64.636,334.290,34.729
-1.229,-0.236,2.558,-90.210,409.241,8.423
-1.244,-0.449,2.118,-108.948,502.686,-16.174
-1.229,-0.692,1.565,-112.366,594.971,-32.288
-1.148,-0.839,0.996,-103.455,658.386,-31.311
-1.030,-0.856,0.561,-82.764,692.566,-11.169
-0.898,-0.793,0.124,-52.979,684.692,25.513
-0.758,-0.618,-0.171,-45.349,651.062,71.289
-0.655,-0.426,-0.395,-42.725,606.567,111.023
-0.628,-0.276,-0.625,-38.513,569.519,136.658
-0.542,-0.109,-0.894,-61.401,544.922,149.109
-0.465,0.074,-1.237,-99.121,525.146,153.381
-0.410,0.280,-1.617,-129.700,499.023,154.480
-0.375,0.518,-1.962,-144.409,459.229,148.743
-0.221,0.700,-2.403,-143.250,374.329,114.929
-0.198,0.522,-2.430,-141.907,213.562,57.434
-0.066,0.222,-2.067,-120.972,64.758,18.616
0.001,0.147,-1.650,-107.178,-48.035,12.939
0.088,0.223,-1.309,-87.036,-122.742,15.869
0.181,0.280,-1.026,-55.847,-164.001,11.719
0.239,0.315,-0.811,-40.649,-181.396,3.418
0.257,0.351,-0.728,-29.175,-179.260,-3.357
0.259,0.393,-0.715,4.150,-159.973,-11.169
0.268,0.459,-0.778,43.884,-139.587,-19.348
0.272,0.534,-0.841,74.097,-132.202,-24.719
0.286,0.554,-0.847,94.849,-135.193,-31.372
0.252,0.527,-0.838,100.403,-143.494,-41.382
0.196,0.477,-0.857,99.854,-154.541,-54.504
0.194,0.405,-0.838,94.299,-172.180,-70.435
0.186,0.304,-0.712,84.351,-204.590,-85.144
0.133,0.198,-0.479,63.293,-249.695,-93.201
0.092,0.058,-0.215,48.828,-297.852,-92.651
0.047,0.011,-0.002,39.856,-349.854,-77.820
0.038,0.013,0.344,43.640,-389.038,-59.631
0.130,0.021,0.644,46.936,-392.029,-45.288
-0.088,0.011,0.837,46.082,-383.301,-33.997
-0.409,-0.084,0.958,63.477,-373.901,-27.527
0.143,0.267,0.657,119.629,-355.469,-26.367
-0.444,0.311,0.672,150.452,-378.052,-86.853
-0.340,-0.139,1.197,110.229,-440.552,-152.161
-0.307,-0.438,1.469,70.007,-440.552,-155.273
-0.196,-0.844,1.610,65.186,-406.128,-132.568
-0.273,-1.013,1.552,43.274,-339.111,-76.599
-0.211,-0.669,1.335,27.588,-269.531,-14.526
-0.216,-0.461,1.239,-10.010,-219.727,-1.648
-0.352,-0.509,1.329,-36.316,-205.505,-17.700
-0.460,-0.444,1.457,-56.702,-206.055,-16.296
-0.555,-0.269,1.733,-62.927,-215.027,-2.319
-0.490,-0.200,1.934,-58.350,-208.191,9.766
-0.431,-0.063,2.065,-42.725,-189.270,22.217
-0.500,0.106,1.673,-12.695,-141.968,16.174
-0.523,-0.230,1.716,-0.427,-142.212,-16.418
-0.495,-0.514,1.976,-9.216,-141.541,-24.475
-0.472,-0.416,1.912,-2.319,-115.173,-4.089
-0.384,-0.253,1.749,1.099,-85.754,14.587
-0.382,-0.218,1.607,-6.287,-63.538,12.634
-0.395,-0.227,1.574,-20.142,-53.040,5.310
-0.410,-0.178,1.595,-26.978,-53.040,5.981
-0.437,-0.090,1.744,-27.100,-57.739,11.353
-0.424,0.028,1.864,-25.024,-53.406,16.296
-0.399,0.109,1.842,-15.137,-34.912,17.944
-0.376,0.141,1.693,-10.437,-9.033,12.817
-0.339,0.110,1.497,-10.742,12.817,3.235
-0.323,0.029,1.334,-11.963,23.437,-5.859
-0.319,-0.043,1.223,-12.451,23.865,-10.254
-0.283,-0.072,1.162,-11.230,20.264,-7.568
-0.249,-0.043,1.124,-8.057,17.029,-1.282
-0.242,0.027,1.103,-7.080,16.113,5.066
-0.224,0.090,1.089,-9.888,16.357,7.690
-0.213,0.125,1.084,-10.742,16.235,5.676
-0.191,0.113,1.051,-8.179,17.334,1.343
-0.182,0.088,0.994,-5.798,20.874,-1.343
-0.183,0.066,0.947,-2.686,23.437,-1.465
-0.187,0.061,0.921,1.160,22.888,-0.977
-0.200,0.060,0.911,4.822,19.287,-0.549
-0.199,0.056,0.895,9.216,15.869,-0.732
-0.186,0.043,0.873,12.878,13.672,-1.282
-0.181,0.010,0.863,14.648,10.803,-3.479
-0.175,-0.032,0.864,12.878,8.362,-6.226
-0.177,-0.062,0.890,10.925,5.371,-6.714
-0.167,-0.065,0.921,10.193,2.808,-4.700
-0.159,-0.044,0.930,10.803,3.296,-1.587
-0.160,-0.009,0.924,10.254,5.188,0.000
-0.156,0.004,0.912,8.911,6.226,-0.793
-0.153,-0.006,0.906,7.141,6.287,-3.601
-0.151,-0.031,0.903,4.761,6.042,-6.836
-0.152,-0.055,0.902,3.174,5.554,-8.667
-0.158,-0.074,0.917,5.066,3.174,-8.667
-0.160,-0.079,0.939,6.348,0.122,-6.958
-0.152,-0.092,0.962,8.240,-1.709,-5.249
-0.144,-0.111,0.983,8.789,-2.686,-4.517

-1.074,-0.119,2.746,-31.433,-49.988,-12.329
-1.272,-0.372,3.372,-24.475,-53.406,-26.184
-1.332,-0.833,3.851,-3.357,-8.423,-26.245
-1.406,-0.984,3.795,20.569,91.492,0.671
-1.266,-0.751,3.198,39.307,219.971,40.161
-1.125,-0.582,2.523,47.424,324.036,69.397
-1.017,-0.436,1.998,36.133,383.484,92.712
-0.948,-0.293,1.824,11.292,417.908,121.521
-0.982,-0.094,1.842,-13.367,432.007,149.841
-0.873,0.047,1.734,-25.513,454.712,173.645
-0.827,0.122,1.504,-22.034,500.671,187.500
-0.842,0.241,1.189,-48.584,552.490,186.279
-0.739,0.364,0.746,-80.383,603.149,170.288
-0.664,0.380,0.193,-85.205,651.733,141.663
-0.633,0.253,-0.327,-103.699,672.302,100.403
-0.623,0.209,-0.736,-151.733,661.194,58.167
-0.479,0.157,-1.116,-157.349,602.844,25.269
-0.347,0.062,-1.370,-112.671,516.846,6.104
-0.228,-0.018,-1.529,-62.012,425.964,-5.737
-0.029,-0.054,-1.632,-29.419,343.201,-9.583
0.092,-0.103,-1.748,-8.972,265.137,-3.967
0.125,-0.144,-1.807,-16.846,195.374,7.568
0.138,-0.129,-1.832,-36.255,127.014,22.034
0.153,-0.063,-1.793,-30.640,50.293,39.124
0.195,0.106,-1.616,-19.348,-30.945,59.265
0.201,0.295,-1.366,-2.136,-102.600,71.411
0.222,0.459,-1.141,17.456,-153.259,66.772
0.251,0.561,-0.993,26.367,-178.833,46.936
0.241,0.609,-0.897,23.987,-186.157,19.592
0.245,0.603,-0.888,30.273,-185.974,-9.949
0.233,0.570,-0.892,44.861,-185.669,-36.377
0.243,0.518,-0.841,49.927,-196.899,-53.711
0.168,0.446,-0.677,50.842,-223.206,-66.162
0.118,0.368,-0.438,50.903,-253.662,-75.378
0.147,0.312,-0.283,45.410,-282.593,-76.355
0.168,0.303,-0.083,39.063,-304.749,-71.899
0.149,0.283,0.133,30.640,-317.749,-69.458
0.085,0.265,0.359,6.348,-327.393,-66.345
0.018,0.224,0.535,-11.841,-330.994,-65.552
-0.029,0.147,0.679,5.798,-330.750,-68.115
-0.019,-0.015,0.852,39.856,-326.660,-78.003
-0.093,-0.331,1.149,52.612,-324.951,-79.712
0.041,-0.361,1.226,78.979,-279.236,-50.232
-0.042,0.002,0.760,132.080,-242.126,-40.710
-0.199,0.143,0.523,151.550,-268.066,-79.285
-0.306,-0.098,0.687,126.892,-333.313,-139.099
-0.386,-0.438,1.097,84.106,-379.822,-179.138
-0.448,-0.751,1.543,25.818,-390.076,-184.937
-0.274,-1.307,2.025,-26.367,-357.849,-147.888
-0.572,-0.926,2.109,-44.189,-291.504,-61.340
-0.365,-0.275,1.878,-55.908,-220.337,7.019
-0.308,-0.088,1.678,-60.669,-179.382,0.549
-0.313,-0.327,1.697,-69.580,-168.579,-29.968
-0.445,-0.449,1.865,-64.270,-161.682,-33.325
-0.416,-0.285,1.990,-45.532,-143.555,-9.399
-0.370,-0.121,1.898,-19.592,-114.502,6.775
-0.327,-0.081,1.871,-3.784,-92.407,8.972
-0.289,-0.042,1.797,-0.977,-68.115,7.263
-0.282,0.002,1.710,-3.479,-48.462,6.409
-0.300,0.022,1.642,-5.310,-37.292,2.747
-0.274,-0.002,1.603,-11.475,-32.593,-4.761
-0.242,-0.068,1.577,-15.442,-29.541,-12.085
-0.236,-0.135,1.551,-16.968,-24.475,-15.015
-0.240,-0.171,1.526,-20.752,-18.677,-13.977
-0.237,-0.198,1.501,-20.874,-13.123,-10.193
-0.240,-0.199,1.477,-17.395,-8.545,-4.517
-0.219,-0.183,1.424,-9.583,-3.662,2.380
-0.184,-0.143,1.337,0.671,3.052,10.376
-0.150,-0.066,1.213,5.005,11.780,18.250
-0.129,0.027,1.074,3.479,19.958,23.682
-0.121,0.108,0.967,-1.221,22.583,23.987
-0.127,0.141,0.920,-5.676,17.029,17.395
-0.133,0.097,0.942,-10.315,6.958,6.042
-0.137,0.014,0.987,-14.282,0.305,-4.089
-0.130,-0.047,1.001,-14.526,-0.305,-6.775
-0.140,-0.029,1.013,-10.864,1.831,-1.831
-0.137,0.045,1.024,-6.104,3.906,5.249
-0.123,0.098,1.012,0.427,7.446,7.690
-0.110,0.105,0.975,5.737,12.329,3.906
-0.104,0.068,0.927,9.705,16.357,-1.953
-0.097,0.000,0.883,12.512,17.822,-6.958
-0.094,-0.062,0.845,13.794,17.700,-8.789
-0.096,-0.097,0.810,12.024,16.663,-7.568
-0.096,-0.088,0.781,9.094,13.672,-4.211
-0.100,-0.071,0.766,5.859,8.728,-1.343
-0.116,-0.078,0.802,0.610,-0.122,-0.854
-0.132,-0.087,0.896,-4.700,-10.681,-0.854
-0.137,-0.079,0.996,-7.141,-17.395,0.244
-0.141,-0.060,1.051,-5.066,-16.663,3.052
-0.145,-0.028,1.054,-4.272,-10.681,4.883
-0.144,-0.002,1.023,-4.456,-4.944,5.005
-0.143,-0.001,1.005,-4.272,-3.479,3.113
-0.136,-0.012,1.004,-3.967,-4.578,0.977
-0.141,-0.020,1.015,-3.479,-5.859,0.061
-0.141,-0.019,1.036,-2.991,-6.531,0.122
-0.143,-0.026,1.059,-1.282,-5.981,0.061
-0.141,-0.041,1.062,-1.099,-3.601,-0.671
-0.139,-0.050,1.042,-1.831,-0.244,-0.732
-0.139,-0.035,1.009,-1.587,2.380,0.671
-0.137,-0.010,0.979,-1.221,2.502,2.563

-0.562,-0.158,2.275,-18.311,1.099,-1.709
-0.674,-0.270,2.456,-19.226,1.770,-6.226
-0.799,-0.424,2.638,-17.517,14.221,-8.850
-0.861,-0.604,2.789,-11.780,40.955,-5.737
-0.858,-0.672,2.821,-9.338,87.585,11.230
-0.779,-0.580,2.689,-13.916,148.743,41.626
-0.704,-0.434,2.439,-20.508,213.623,75.684
-0.653,-0.272,2.152,-17.639,269.958,106.384
-0.601,-0.134,1.920,-26.428,313.293,125.610
-0.534,-0.066,1.782,-40.161,344.421,131.104
-0.520,-0.020,1.753,-63.721,367.249,125.793
-0.520,0.006,1.698,-92.224,391.663,113.770
-0.613,-0.023,1.507,-104.858,431.274,98.083
-0.580,-0.134,1.200,-113.708,481.079,78.735
-0.609,-0.245,0.862,-144.409,527.161,50.781
-0.610,-0.339,0.581,-181.946,564.697,22.583
-0.485,-0.414,0.207,-172.546,579.407,10.559
-0.397,-0.448,-0.132,-139.404,579.163,21.729
-0.497,-0.379,-0.448,-123.108,567.139,47.791
-0.263,-0.152,-0.929,-122.925,554.932,71.716
-0.250,0.001,-1.360,-128.906,507.568,70.618
-0.306,0.062,-1.659,-120.483,425.659,65.674
-0.129,0.213,-1.931,-98.938,356.873,76.721
-0.114,0.446,-2.106,-90.942,262.756,92.346
-0.150,0.610,-2.017,-59.082,125.366,89.111
-0.075,0.667,-1.734,-5.493,12.329,66.833
0.020,0.705,-1.422,15.747,-70.740,39.185
0.030,0.716,-1.186,19.287,-123.901,11.841
-0.015,0.673,-1.070,26.794,-153.015,-17.456
0.008,0.550,-1.090,33.752,-163.208,-49.194
0.104,0.391,-1.168,34.424,-166.138,-76.721
0.076,0.234,-1.213,37.659,-173.218,-93.445
0.020,0.113,-1.231,43.091,-185.974,-96.985
0.013,0.059,-1.146,45.776,-208.984,-90.027
-0.005,0.056,-0.979,53.528,-242.493,-77.759
0.000,0.085,-0.745,60.120,-281.799,-63.721
-0.054,0.104,-0.472,66.345,-321.106,-55.237
-0.112,0.122,-0.267,71.838,-356.812,-51.636
-0.129,0.144,-0.055,71.045,-384.583,-46.326
-0.165,0.157,0.300,66.833,-396.179,-39.246
-0.165,0.145,0.616,67.078,-397.095,-31.860
-0.155,0.125,0.910,66.528,-390.381,-23.865
-0.046,0.110,1.100,70.618,-371.582,-14.893
-0.029,0.147,1.175,80.017,-340.393,-5.615
-0.232,0.052,1.171,91.919,-309.937,-2.563
-0.199,0.513,1.242,128.906,-302.002,-7.996
-0.323,0.296,1.257,192.993,-293.701,-74.463
-0.406,-0.151,1.361,120.544,-307.617,-140.747
-0.497,-0.540,1.416,111.938,-332.764,-156.128
-0.366,-0.652,1.626,117.188,-348.572,-136.597
-0.331,-0.879,2.047,104.980,-327.698,-101.685
-0.209,-0.876,2.131,61.584,-246.765,-55.725
-0.274,-0.582,1.804,31.311,-158.447,-16.846
-0.319,-0.322,1.636,16.907,-116.516,-7.812
-0.351,-0.215,1.567,-14.282,-102.600,-24.902
-0.411,-0.190,1.659,-31.433,-112.305,-41.809
-0.428,-0.031,1.673,-22.217,-132.751,-48.401
-0.427,-0.190,1.852,-18.677,-152.405,-66.345
-0.412,-0.511,2.244,-11.780,-149.841,-65.063
-0.389,-0.600,2.241,5.676,-96.924,-38.574
-0.315,-0.479,1.834,25.269,-31.128,-4.456
-0.296,-0.336,1.495,28.687,-0.732,14.954
-0.286,-0.213,1.393,13.672,-6.775,20.325
-0.291,-0.133,1.482,6.470,-30.273,18.982
-0.270,-0.083,1.652,0.366,-47.119,14.526
-0.278,-0.069,1.759,-4.456,-43.823,10.132
-0.276,-0.094,1.740,-7.324,-24.597,4.456
-0.258,-0.126,1.608,-12.329,-1.465,0.427
-0.238,-0.114,1.453,-17.761,16.846,1.160
-0.204,-0.058,1.287,-19.104,29.236,6.104
-0.179,0.011,1.126,-14.832,37.231,11.047
-0.152,0.065,1.007,-12.024,41.931,12.146
-0.156,0.071,0.908,-9.094,40.100,8.179
-0.153,0.035,0.878,-7.202,26.550,1.221
-0.145,-0.024,0.927,-3.601,13.489,-3.845
-0.133,-0.064,0.963,1.404,7.812,-3.723
-0.131,-0.055,0.947,7.385,10.864,1.160
-0.135,-0.005,0.905,13.184,16.113,6.775
-0.108,0.009,0.867,16.907,18.982,7.019
-0.099,-0.025,0.849,15.686,18.066,2.441
-0.100,-0.074,0.862,13.428,16.174,-1.099
-0.105,-0.099,0.851,11.353,16.113,-1.709
-0.089,-0.096,0.799,10.620,17.517,-0.488
-0.085,-0.085,0.761,8.057,16.174,0.488
-0.096,-0.090,0.781,3.052,9.705,-0.549
-0.108,-0.108,0.846,-2.319,1.343,-3.662
-0.118,-0.131,0.894,-5.249,-3.235,-5.493
-0.131,-0.152,0.933,-6.348,-4.883,-5.127
-0.147,-0.151,0.970,-6.042,-6.165,-2.869
-0.157,-0.131,1.010,-4.456,-8.240,0.366
-0.162,-0.099,1.040,-1.526,-8.606,3.784
-0.157,-0.074,1.036,2.808,-6.714,6.104
-0.150,-0.064,1.020,5.920,-5.127,6.409
-0.141,-0.065,1.003,5.127,-4.395,5.615
-0.136,-0.054,0.995,1.709,-3.784,5.127
-0.136,-0.027,0.996,-1.892,-3.967,5.310
-0.138,-0.010,1.001,-4.517,-4.395,4.822
-0.141,-0.009,1.009,-6.592,-4.944,2.686
-0.143,-0.026,1.014,-8.728,-4.700,0.366
-0.147,-0.040,1.023,-9.827,-4.211,-0.305

-0.712,-0.170,2.500,-35.278,-29.419,-2.747
-0.769,-0.169,2.792,-23.315,-3.479,5.005
-0.846,-0.119,2.905,-21.912,45.532,9.949
-0.864,-0.125,2.959,-16.724,100.769,9.888
-0.901,-0.136,2.981,-17.700,160.034,5.859
-0.879,-0.143,2.859,-25.024,219.360,0.671
-0.852,-0.245,2.659,-24.963,275.818,-7.507
-0.877,-0.393,2.510,-42.603,324.158,-23.987
-0.881,-0.569,2.398,-71.716,368.652,-42.969
-0.921,-0.732,2.288,-73.181,418.396,-49.561
-1.009,-0.755,2.052,-60.242,473.755,-33.447
-0.969,-0.674,1.684,-37.720,538.025,5.798
-0.911,-0.546,1.207,-7.874,605.896,55.542
-0.902,-0.396,0.670,3.113,666.321,100.952
-0.901,-0.274,0.173,-9.949,714.905,129.395
-0.813,-0.189,-0.295,-40.100,729.370,138.123
-0.713,-0.126,-0.667,-77.148,723.694,134.277
-0.610,-0.097,-0.999,-102.539,690.186,121.887
-0.491,-0.057,-1.269,-121.216,628.235,105.652
-0.452,0.046,-1.609,-132.019,542.236,97.412
-0.118,0.267,-1.694,-129.700,447.327,93.384
-0.194,0.328,-1.710,-108.521,292.786,76.172
-0.220,0.325,-1.544,-50.354,167.603,63.416
-0.155,0.403,-1.519,-11.658,106.750,58.228
-0.117,0.560,-1.609,-19.897,72.144,55.420
-0.067,0.579,-1.721,-26.062,30.945,44.617
-0.011,0.638,-1.651,-19.409,-29.724,32.166
0.042,0.624,-1.429,7.446,-99.670,13.550
0.067,0.563,-1.171,21.423,-156.311,-9.277
0.115,0.517,-0.948,16.296,-192.688,-31.555
0.098,0.478,-0.801,26.062,-211.792,-52.124
0.066,0.469,-0.740,54.565,-216.431,-67.627
0.047,0.481,-0.695,82.703,-211.365,-77.576
0.041,0.447,-0.662,102.600,-204.529,-85.938
0.096,0.403,-0.625,102.600,-206.970,-92.896
0.015,0.371,-0.520,87.646,-234.802,-101.135
-0.002,0.282,-0.379,88.013,-274.658,-113.220
-0.006,0.165,-0.237,75.439,-315.552,-125.244
-0.002,0.015,-0.029,53.467,-352.478,-133.484
-0.020,-0.147,0.286,36.438,-379.761,-134.094
-0.017,-0.292,0.592,28.137,-389.832,-122.742
-0.091,-0.407,0.845,27.710,-384.277,-100.586
0.078,-0.435,0.911,37.354,-363.953,-72.021
-0.093,-0.485,0.746,43.335,-334.900,-49.988
0.079,-0.320,1.202,37.354,-333.191,-26.550
0.055,-0.115,0.732,96.741,-284.058,-24.597
-0.141,-0.139,0.700,60.730,-305.298,-60.608
-0.168,-0.235,0.778,33.936,-359.314,-71.411
-0.300,-0.334,1.232,42.542,-413.574,-68.359
-0.225,-0.303,1.720,37.781,-423.096,-54.138
-0.124,-0.439,1.983,29.358,-377.991,-43.579
-0.137,-0.469,1.995,13.855,-297.363,-23.560
-0.085,-0.402,1.757,20.874,-220.093,-1.831
-0.184,-0.164,1.663,33.325,-173.401,9.766
-0.178,-0.116,1.606,31.311,-140.625,-6.653
-0.220,-0.201,1.489,11.047,-120.422,-27.405
-0.234,-0.222,1.385,19.836,-124.207,-36.987
-0.145,-0.278,1.384,28.748,-143.555,-46.326
-0.128,-0.633,1.452,11.719,-155.273,-57.983
-0.278,-0.773,1.791,-9.949,-156.799,-38.940
-0.191,-0.419,1.897,-22.461,-132.568,0.977
-0.172,-0.203,1.865,-27.893,-105.896,12.207
-0.200,-0.102,1.872,-36.011,-88.318,8.301
-0.215,-0.072,1.900,-41.687,-73.486,2.502
-0.227,-0.080,1.903,-38.147,-59.387,-0.427
-0.223,-0.131,1.860,-29.480,-44.922,-2.869
-0.212,-0.188,1.757,-20.752,-28.503,-3.784
-0.210,-0.196,1.622,-13.000,-14.404,-0.488
-0.195,-0.145,1.493,-6.836,-5.066,5.859
-0.182,-0.068,1.373,-3.479,0.427,10.986
-0.173,-0.021,1.243,-2.319,4.700,11.719
-0.142,-0.038,1.106,-4.333,8.423,5.981
-0.107,-0.106,0.999,-9.216,9.827,-1.587
-0.095,-0.169,0.945,-14.160,9.216,-5.676
-0.108,-0.180,0.945,-14.771,5.981,-3.235
-0.117,-0.118,0.974,-14.160,1.831,4.395
-0.126,-0.020,1.009,-9.094,-0.671,11.963
-0.122,0.061,1.021,-2.502,0.305,14.465
-0.111,0.098,0.995,2.686,4.639,11.292
-0.101,0.080,0.943,5.127,9.949,4.395
-0.098,0.011,0.891,5.005,13.550,-3.052
-0.109,-0.069,0.852,3.479,13.855,-8.362
-0.114,-0.129,0.833,2.869,11.841,-8.606
-0.111,-0.145,0.820,3.723,7.812,-4.761
-0.106,-0.133,0.802,5.920,3.662,-0.061
-0.112,-0.105,0.818,4.333,-1.282,2.747
-0.125,-0.089,0.893,-0.183,-8.362,2.808
-0.138,-0.107,0.981,-4.089,-13.550,0.793
-0.139,-0.123,1.030,-5.371,-13.306,0.122
-0.143,-0.082,1.042,-6.836,-9.277,2.991
-0.147,-0.033,1.038,-4.456,-5.737,6.531
-0.150,-0.011,1.046,-2.380,-4.944,6.348
-0.146,-0.034,1.054,-1.770,-4.517,2.686
-0.142,-0.063,1.046,-0.488,-2.991,0.244
-0.144,-0.075,1.039,1.953,-1.648,0.916
-0.145,-0.077,1.046,3.418,-1.038,2.380
-0.140,-0.078,1.037,1.709,-0.122,2.563
-0.143,-0.078,1.011,-0.671,1.953,2.197
-0.142,-0.065,0.991,-2.930,2.625,2.258
-0.133,-0.059,0.993,-3.174,0.732,2.380

-0.835,0.176,3.059,-35.522,-25.269,8.362
-1.107,0.105,3.613,-15.930,-19.714,-3.723
-1.092,-0.225,3.998,2.747,37.109,-26.184
-1.156,-0.685,3.853,9.277,144.043,-52.734
-1.078,-1.057,3.320,-2.869,274.719,-59.204
-1.066,-1.205,2.665,-20.081,392.639,-33.447
-0.990,-1.091,1.995,-45.959,474.365,9.583
-0.823,-0.877,1.501,-74.158,515.503,54.321
-0.680,-0.668,1.155,-94.910,527.832,92.041
-0.579,-0.498,0.888,-96.436,532.471,121.460
-0.494,-0.284,0.664,-92.285,538.696,143.066
-0.395,-0.047,0.252,-83.618,540.100,156.372
-0.281,0.151,-0.163,-79.956,543.945,163.147
-0.181,0.279,-0.512,-94.482,525.574,157.349
-0.130,0.372,-0.723,-109.619,474.365,135.437
-0.071,0.444,-0.802,-115.417,395.813,108.521
0.007,0.474,-0.802,-95.276,309.692,80.872
0.038,0.422,-0.710,-66.650,235.901,50.659
0.072,0.360,-0.601,-56.946,180.542,25.085
0.074,0.306,-0.607,-44.312,148.193,11.475
0.068,0.272,-0.742,-31.616,139.832,10.193
0.062,0.277,-0.942,-31.860,137.085,12.512
0.067,0.327,-1.118,-30.029,120.911,10.925
0.071,0.388,-1.259,-21.545,81.543,6.042
0.083,0.415,-1.339,-12.634,24.719,-3.723
0.107,0.415,-1.327,-9.827,-34.424,-19.043
0.116,0.378,-1.222,-7.019,-89.111,-37.842
0.145,0.330,-1.042,-4.211,-132.141,-54.565
0.154,0.286,-0.835,-2.014,-162.231,-64.209
0.147,0.274,-0.677,1.343,-178.467,-63.965
0.149,0.296,-0.574,5.432,-181.458,-57.068
0.104,0.358,-0.484,10.376,-177.734,-47.607
0.081,0.419,-0.395,16.663,-180.359,-39.917
0.060,0.468,-0.213,25.085,-196.289,-37.170
0.060,0.446,-0.002,36.377,-219.238,-44.067
0.085,0.356,0.181,48.828,-234.009,-58.167
0.117,0.219,0.302,57.739,-230.164,-70.984
0.120,0.069,0.380,58.594,-216.370,-77.393
0.119,-0.062,0.462,54.932,-204.041,-75.500
0.015,-0.169,0.523,52.429,-200.439,-66.833
0.085,-0.201,0.562,56.213,-210.815,-53.833
-0.020,-0.289,0.746,60.608,-229.553,-44.861
0.128,-0.399,1.152,53.467,-254.272,-30.334
0.108,-0.254,1.270,67.749,-220.947,-3.235
-0.011,0.080,0.724,98.572,-193.848,-0.427
-0.192,0.159,0.658,104.492,-259.949,-44.983
-0.239,-0.072,1.017,97.229,-356.628,-89.539
-0.197,-0.350,1.481,81.726,-406.433,-104.553
-0.139,-0.549,2.011,47.852,-392.334,-95.764
-0.016,-0.885,2.304,23.315,-318.787,-74.463
-0.105,-0.861,2.226,-6.348,-202.759,-31.921
0.022,-0.435,1.748,-16.479,-95.886,15.747
0.051,-0.134,1.314,-30.640,-40.100,32.043
0.089,0.018,1.036,-42.053,-33.325,29.846
-0.023,0.215,0.951,-36.865,-79.407,21.973
-0.085,0.243,1.352,-26.123,-147.888,7.751
-0.053,0.135,1.794,-15.625,-177.856,-4.883
-0.032,-0.008,1.969,-2.014,-159.119,-12.329
0.013,-0.107,1.924,-1.770,-111.633,-13.672
0.007,-0.145,1.650,0.244,-65.491,-7.629
-0.008,-0.115,1.448,-3.662,-46.387,-0.793
-0.024,-0.100,1.398,-11.780,-49.683,1.282
-0.076,-0.094,1.503,-15.259,-63.110,2.808
-0.107,-0.058,1.653,-13.306,-73.303,6.348
-0.100,-0.023,1.739,-6.104,-70.129,10.071
-0.084,0.013,1.734,-2.197,-55.054,12.146
-0.095,0.056,1.655,-2.563,-35.400,12.451
-0.109,0.098,1.554,-7.141,-18.921,10.803
-0.102,0.136,1.456,-10.315,-7.874,7.935
-0.106,0.166,1.366,-10.498,-0.305,4.822
-0.107,0.172,1.289,-10.559,5.798,0.854
-0.109,0.135,1.215,-7.324,10.681,-4.517
-0.111,0.062,1.137,-0.183,13.916,-9.277
-0.104,-0.006,1.061,7.690,15.503,-10.315
-0.097,-0.048,0.994,13.550,15.808,-8.179
-0.079,-0.065,0.945,15.015,15.808,-4.822
-0.080,-0.080,0.893,14.954,16.479,-2.441
-0.078,-0.088,0.851,14.038,14.587,-0.671
-0.087,-0.072,0.843,11.292,9.521,1.404
-0.087,-0.036,0.871,9.644,3.906,4.028
-0.082,-0.003,0.907,8.423,0.610,4.944
-0.076,0.010,0.921,6.470,1.404,3.540
-0.072,-0.010,0.904,5.005,4.028,0.671
-0.076,-0.045,0.871,3.052,6.226,-1.709
-0.072,-0.057,0.846,1.221,5.493,-1.404
-0.080,-0.047,0.860,0.488,1.648,0.366
-0.086,-0.039,0.913,-0.610,-3.479,1.526
-0.087,-0.038,0.967,-2.380,-6.653,2.014
-0.085,-0.023,0.970,-3.174,-5.859,3.540
-0.085,0.008,0.953,-2.441,-5.371,5.798
-0.083,0.041,0.976,-2.014,-8.179,6.897
-0.086,0.042,1.028,-3.174,-11.108,5.188
-0.095,0.028,1.062,-3.784,-10.681,2.563
-0.098,0.039,1.061,-1.648,-7.507,2.686
-0.092,0.062,1.055,2.991,-5.493,4.211
-0.080,0.060,1.051,5.310,-4.456,3.052
-0.078,0.029,1.038,4.272,-2.502,0.000
-0.085,0.004,1.025,1.038,-0.610,-1.526
-0.079,-0.000,1.019,0.610,-0.549,-1.282
-0.075,0.015,1.028,2.380,-1.404,-0.061

-0.591,-0.022,2.386,-6.104,-2.197,36.865
-0.944,0.067,2.953,-5.615,-27.527,40.039
-1.152,0.180,3.647,-19.897,-17.822,37.659
-1.200,0.097,3.990,-9.766,43.701,28.198
-1.066,-0.085,3.699,8.972,160.828,11.902
-0.965,-0.271,3.080,8.850,291.382,-10.559
-0.875,-0.500,2.450,-18.677,403.870,-33.020
-0.885,-0.683,1.953,-66.895,480.103,-47.363
-0.874,-0.799,1.621,-100.037,514.893,-46.631
-0.801,-0.825,1.431,-97.900,526.489,-25.146
-0.718,-0.670,1.262,-84.351,533.936,15.320
-0.656,-0.471,0.989,-63.538,558.167,61.096
-0.690,-0.284,0.653,-41.443,600.952,100.952
-0.908,-0.120,0.200,-25.818,645.630,129.883
-0.859,-0.090,-0.397,-8.118,680.481,146.545
-0.782,-0.030,-0.919,-21.484,707.092,144.836
-0.755,0.090,-1.335,-44.861,685.425,133.911
-0.515,0.186,-1.630,-21.484,614.868,127.563
-0.206,0.303,-1.793,1.831,505.310,118.347
-0.073,0.500,-1.783,-21.057,355.408,109.924
0.050,0.682,-1.614,-32.654,213.684,99.426
0.122,0.750,-1.347,-24.048,101.929,80.933
0.122,0.714,-1.066,-45.898,25.757,54.504
0.124,0.643,-0.840,-93.750,-15.930,23.315
0.095,0.532,-0.753,-111.145,-36.255,-10.193
0.061,0.378,-0.776,-79.468,-43.640,-42.175
0.091,0.224,-0.880,-37.964,-48.645,-69.275
0.113,0.108,-0.990,-12.695,-60.547,-85.022
0.098,0.022,-1.085,11.353,-79.285,-87.830
0.106,-0.017,-1.170,38.696,-100.342,-80.383
0.087,-0.003,-1.244,60.425,-120.239,-68.237
0.094,0.069,-1.256,77.148,-140.991,-55.786
0.038,0.139,-1.208,91.980,-168.701,-46.387
0.040,0.171,-1.039,100.830,-203.369,-42.358
0.033,0.157,-0.753,86.792,-246.887,-45.776
-0.023,0.170,-0.408,57.556,-298.218,-52.612
0.065,0.134,-0.151,46.753,-347.656,-54.504
0.048,0.131,0.047,46.875,-388.733,-52.673
0.038,0.178,0.253,57.617,-397.461,-49.072
0.158,0.209,0.342,59.875,-396.484,-46.509
0.026,0.066,0.615,44.128,-397.949,-46.570
0.027,-0.007,0.937,22.583,-372.986,-35.278
0.021,0.472,0.559,50.415,-354.126,-33.936
-0.336,0.401,0.530,118.225,-420.471,-96.863
-0.539,-0.027,1.143,68.909,-539.490,-168.762
-0.560,-0.404,1.768,8.240,-601.746,-187.317
-0.549,-0.719,2.371,24.658,-591.553,-161.316
-0.500,-0.835,2.906,42.847,-525.085,-107.727
-0.427,-0.747,3.013,42.908,-391.418,-49.133
-0.326,-0.543,2.619,40.527,-246.033,-9.216
-0.206,-0.383,2.125,33.447,-136.108,6.470
-0.120,-0.302,1.649,5.554,-65.796,7.690
-0.112,-0.255,1.353,-20.874,-37.231,4.761
-0.037,-0.159,1.138,-26.611,-42.847,-2.808
-0.212,-0.268,1.104,-23.132,-80.200,-16.235
-0.194,-0.330,1.471,-39.246,-133.850,-17.029
-0.216,-0.252,1.733,-44.495,-143.127,-1.831
-0.229,-0.143,1.837,-29.541,-129.272,13.733
-0.216,-0.056,1.798,-16.174,-103.210,20.142
-0.202,-0.046,1.678,-5.249,-77.454,18.433
-0.181,-0.083,1.540,-2.380,-59.998,13.672
-0.169,-0.111,1.416,-2.258,-49.744,11.780
-0.181,-0.069,1.365,-7.568,-47.363,15.686
-0.184,0.023,1.396,-14.648,-50.537,21.240
-0.174,0.127,1.461,-19.348,-52.673,23.804
-0.150,0.203,1.488,-19.470,-46.875,21.606
-0.135,0.246,1.456,-19.470,-32.898,14.832
-0.133,0.241,1.387,-20.020,-16.418,5.127
-0.132,0.182,1.309,-18.311,-2.991,-4.700
-0.125,0.097,1.212,-14.038,7.019,-12.207
-0.114,0.026,1.092,-4.761,15.259,-14.221
-0.106,-0.013,0.982,5.432,19.165,-11.475
-0.122,-0.037,0.915,12.329,16.968,-8.179
-0.130,-0.063,0.904,14.648,10.681,-6.287
-0.129,-0.096,0.918,15.625,5.005,-5.310
-0.125,-0.111,0.912,16.235,3.540,-3.113
-0.130,-0.098,0.872,13.977,5.676,-0.305
-0.136,-0.072,0.832,9.216,6.592,1.343
-0.144,-0.069,0.829,4.822,3.601,0.854
-0.147,-0.097,0.873,2.258,-2.686,-1.587
-0.139,-0.123,0.929,-0.732,-7.751,-2.930
-0.134,-0.119,0.942,-0.610,-7.385,-0.916
-0.132,-0.090,0.920,0.305,-4.944,2.563
-0.140,-0.062,0.925,-0.122,-5.737,4.822
-0.151,-0.048,0.980,-1.526,-9.583,4.578
-0.153,-0.041,1.037,-2.136,-11.536,4.395
-0.149,-0.025,1.070,-0.916,-9.644,5.005
-0.140,-0.010,1.048,0.854,-4.822,5.615
-0.139,0.002,1.005,0.305,-0.977,5.310
-0.143,0.001,1.002,-0.671,-1.343,4.211
-0.154,-0.009,1.053,-0.549,-4.761,2.563
-0.151,-0.015,1.106,0.488,-6.470,2.136
-0.145,-0.013,1.107,3.113,-2.747,3.052
-0.139,0.004,1.048,2.563,3.418,3.967
-0.134,0.011,0.996,-0.122,6.775,3.113
-0.138,-0.009,0.982,-1.831,5.249,0.977
-0.136,-0.025,1.000,-3.174,2.075,-0.366
-0.130,-0.018,1.012,-2.808,1.160,0.488
-0.125,-0.007,0.993,-0.732,2.747,1.953
-0.119,-0.001,0.957,-1.770,4.639,1.770

-0.654,-0.068,2.330,6.714,12.512,-4.761
-0.669,-0.113,2.658,-7.263,24.658,-5.859
-0.657,-0.146,2.753,-4.639,70.313,-5.310
-0.595,-0.206,2.644,5.310,128.845,-9.521
-0.491,-0.298,2.432,-7.874,196.899,-20.508
-0.483,-0.380,2.195,-45.532,261.047,-31.677
-0.557,-0.436,2.084,-85.938,303.650,-37.292
-0.629,-0.458,2.084,-101.685,319.214,-34.424
-0.641,-0.471,2.076,-77.759,329.773,-19.958
-0.580,-0.422,1.999,-55.603,356.323,-0.122
-0.583,-0.333,1.860,-42.908,398.865,20.752
-0.704,-0.196,1.695,-36.316,445.557,44.128
-0.757,-0.024,1.532,-37.415,487.366,64.636
-0.752,0.103,1.262,-31.494,526.611,74.707
-0.750,0.140,0.921,-24.658,561.035,73.120
-0.650,0.090,0.512,-37.903,587.463,57.861
-0.547,-0.061,0.028,-60.608,606.934,30.884
-0.488,-0.280,-0.409,-88.867,623.474,2.075
-0.426,-0.439,-0.773,-127.502,627.319,-16.052
-0.301,-0.557,-1.107,-140.991,618.286,-18.433
-0.238,-0.579,-1.405,-137.024,580.505,3.662
-0.325,-0.486,-1.724,-112.793,524.475,46.448
-0.267,-0.251,-1.925,-67.322,469.788,97.534
-0.180,0.083,-2.094,-30.823,378.601,137.573
-0.165,0.429,-2.066,-10.925,250.122,155.701
-0.111,0.661,-1.854,20.752,130.798,143.921
-0.040,0.733,-1.534,54.749,28.931,107.971
-0.003,0.702,-1.218,72.510,-41.931,61.523
-0.005,0.629,-0.991,71.533,-82.703,16.357
0.012,0.549,-0.901,70.740,-104.004,-21.362
0.009,0.474,-0.901,80.688,-116.699,-50.049
-0.010,0.447,-0.932,87.341,-130.981,-66.528
0.007,0.444,-0.933,91.370,-153.809,-73.792
0.044,0.443,-0.862,95.581,-183.044,-79.407
0.026,0.410,-0.734,95.520,-213.135,-87.402
0.042,0.351,-0.594,82.764,-240.356,-95.520
0.065,0.266,-0.473,65.979,-263.794,-102.478
0.067,0.155,-0.387,53.528,-280.457,-108.521
0.022,0.047,-0.279,47.363,-295.532,-109.985
0.047,0.003,-0.115,41.748,-313.477,-101.196
-0.001,0.047,0.066,34.729,-342.102,-83.069
-0.100,0.101,0.274,37.476,-374.695,-62.561
-0.015,0.138,0.418,40.771,-405.762,-52.185
0.106,0.028,0.627,35.156,-420.959,-59.875
-0.092,-0.323,1.052,7.263,-429.260,-67.505
0.143,0.034,0.928,27.771,-392.822,-56.091
-0.145,-0.066,0.589,133.789,-373.962,-103.760
-0.306,-0.346,0.681,87.585,-430.481,-151.184
-0.385,-0.574,1.149,24.780,-491.516,-152.649
-0.315,-0.666,1.642,37.720,-506.958,-121.826
-0.171,-0.712,1.863,33.813,-454.834,-71.838
-0.203,-0.611,2.003,-0.061,-384.277,-15.808
-0.207,-0.488,1.930,-3.723,-298.889,20.752
-0.167,-0.341,1.663,-11.597,-219.910,38.635
-0.234,-0.219,1.480,-14.954,-178.406,38.757
-0.267,-0.049,1.340,-16.724,-175.049,30.090
-0.375,0.151,1.419,-2.808,-201.050,20.142
-0.261,0.193,1.556,16.174,-220.703,2.258
-0.218,0.240,1.585,20.325,-220.093,-19.104
-0.233,0.084,1.539,23.621,-213.074,-54.260
-0.197,-0.414,1.826,8.606,-204.468,-82.886
-0.169,-0.699,1.884,-1.465,-162.170,-74.768
-0.222,-0.742,1.702,0.854,-110.352,-41.870
-0.261,-0.568,1.542,2.441,-81.848,-2.319
-0.268,-0.333,1.510,0.610,-79.346,25.696
-0.284,-0.144,1.641,-0.244,-92.773,34.851
-0.293,-0.042,1.850,-6.165,-102.356,29.907
-0.286,-0.020,2.015,-11.963,-96.130,19.226
-0.281,-0.028,2.072,-18.616,-72.388,7.629
-0.249,-0.070,1.953,-22.705,-35.522,-1.770
-0.222,-0.131,1.682,-29.419,0.122,-9.460
-0.202,-0.188,1.435,-37.354,22.400,-14.099
-0.224,-0.218,1.279,-42.175,28.442,-13.977
-0.231,-0.212,1.221,-37.964,20.630,-7.385
-0.211,-0.144,1.228,-26.062,9.338,3.418
-0.189,-0.028,1.242,-12.878,5.859,14.832
-0.166,0.076,1.192,-1.770,12.024,20.447
-0.148,0.134,1.104,2.808,21.667,18.860
-0.138,0.120,1.003,7.080,30.273,11.719
-0.129,0.062,0.901,7.751,36.377,3.296
-0.137,-0.001,0.799,6.287,38.696,-2.441
-0.151,-0.059,0.743,6.165,35.522,-4.639
-0.152,-0.091,0.713,8.606,27.893,-3.601
-0.159,-0.090,0.698,7.690,20.325,-0.488
-0.178,-0.079,0.713,2.747,13.184,1.404
-0.193,-0.088,0.763,0.427,4.272,1.160
-0.197,-0.109,0.837,0.671,-3.418,0.854
-0.193,-0.115,0.888,1.221,-6.165,2.075
-0.198,-0.087,0.895,1.343,-4.333,5.371
-0.200,-0.052,0.888,-1.038,-2.625,7.568
-0.200,-0.039,0.909,-4.883,-4.211,6.470
-0.197,-0.030,0.955,-8.118,-6.714,4.761
-0.194,-0.008,0.987,-9.216,-7.019,3.296
-0.186,-0.012,1.000,-9.644,-5.737,1.343
-0.185,-0.016,0.995,-8.240,-4.456,1.404
-0.181,-0.001,0.983,-7.935,-3.662,2.686
-0.183,0.019,1.001,-7.751,-5.615,3.540
-0.184,0.022,1.050,-4.089,-9.705,3.418
-0.182,0.017,1.092,-2.930,-10.620,2.319
-0.182,0.007,1.094,-2.930,-6.958,1.160

-0.365,-0.324,2.334,-26.001,34.485,18.066
-0.456,-0.311,2.434,-20.142,61.523,34.058
-0.529,-0.275,2.539,-12.085,86.914,50.598
-0.578,-0.227,2.630,-8.972,116.455,64.514
-0.605,-0.191,2.667,-6.226,154.236,74.768
-0.612,-0.156,2.638,-9.583,200.439,78.552
-0.625,-0.126,2.553,-20.386,249.573,75.500
-0.632,-0.097,2.439,-31.555,291.016,66.650
-0.647,-0.108,2.328,-37.903,323.425,54.138
-0.671,-0.168,2.244,-44.128,355.103,41.443
-0.724,-0.247,2.139,-60.974,389.832,28.992
-0.742,-0.353,1.950,-79.773,437.073,15.198
-0.705,-0.451,1.679,-97.717,500.488,7.324
-0.732,-0.549,1.254,-103.455,570.618,10.437
-0.782,-0.600,0.698,-100.403,633.728,22.461
-0.755,-0.571,0.221,-96.863,682.434,42.236
-0.660,-0.506,-0.247,-79.407,686.401,70.068
-0.584,-0.374,-0.595,-57.739,665.344,100.891
-0.499,-0.227,-0.873,-34.668,621.948,124.451
-0.440,-0.069,-1.115,-19.653,562.683,138.550
-0.420,0.081,-1.277,-14.709,491.699,143.127
-0.411,0.237,-1.393,-24.902,411.194,136.353
-0.290,0.416,-1.543,-39.490,335.144,114.075
-0.266,0.395,-1.548,-56.335,243.164,77.759
-0.306,0.296,-1.459,-57.129,146.118,54.871
-0.209,0.203,-1.438,-45.471,82.642,54.504
-0.175,0.322,-1.353,-43.274,27.588,66.650
-0.142,0.434,-1.194,-21.423,-25.818,65.369
-0.101,0.495,-1.011,-3.357,-70.251,51.514
-0.094,0.498,-0.898,4.333,-97.290,31.006
-0.124,0.490,-0.899,5.066,-107.056,7.935
-0.123,0.485,-0.964,2.808,-107.605,-13.550
-0.095,0.458,-1.016,5.737,-110.596,-31.189
-0.059,0.419,-0.993,18.311,-125.610,-43.274
-0.057,0.374,-0.889,31.494,-154.053,-51.331
-0.103,0.354,-0.734,35.522,-187.866,-54.565
-0.020,0.326,-0.614,45.410,-213.135,-54.321
-0.070,0.348,-0.499,46.509,-235.718,-52.185
-0.080,0.401,-0.358,38.757,-262.329,-48.096
-0.125,0.494,-0.148,20.691,-299.744,-43.640
-0.115,0.583,0.048,21.118,-349.609,-47.180
-0.054,0.582,0.306,46.753,-391.357,-64.758
-0.168,0.429,0.520,67.017,-419.678,-93.262
0.038,0.201,0.521,75.378,-433.777,-121.948
-0.134,-0.109,0.803,77.087,-440.430,-146.240
0.091,-0.150,0.878,98.755,-455.750,-161.072
-0.217,-0.331,0.691,161.621,-424.133,-183.350
-0.446,-0.554,1.128,114.502,-498.291,-207.275
-0.443,-0.824,1.478,70.557,-538.208,-185.608
-0.384,-0.939,1.900,80.566,-540.833,-133.118
-0.309,-0.890,2.155,82.520,-490.356,-71.838
-0.242,-0.751,2.226,64.514,-403.564,-23.193
-0.203,-0.554,2.080,44.922,-303.772,9.705
-0.184,-0.374,1.860,27.283,-227.173,28.687
-0.239,-0.201,1.793,10.620,-188.354,36.743
-0.246,-0.070,1.822,6.287,-173.035,37.048
-0.205,-0.018,1.780,12.634,-161.987,28.992
-0.163,-0.055,1.675,17.273,-149.109,10.864
-0.118,-0.177,1.574,15.991,-133.911,-9.216
-0.122,-0.329,1.545,7.263,-120.422,-24.109
-0.145,-0.444,1.551,-2.197,-110.840,-26.367
-0.162,-0.465,1.592,-15.259,-104.797,-15.137
-0.182,-0.359,1.659,-27.100,-98.999,5.615
-0.208,-0.168,1.747,-35.034,-93.506,25.940
-0.226,-0.007,1.833,-40.283,-86.548,33.813
-0.237,0.071,1.878,-46.387,-73.730,28.503
-0.254,0.086,1.842,-49.316,-52.856,16.113
-0.238,0.062,1.600,-47.485,-31.555,1.221
-0.213,-0.052,1.544,-39.795,-26.123,-13.672
-0.206,-0.132,1.498,-35.645,-16.113,-18.311
-0.193,-0.154,1.393,-26.367,-2.136,-9.338
-0.190,-0.084,1.263,-18.616,11.047,5.249
-0.194,0.011,1.164,-11.108,17.334,17.334
-0.199,0.100,1.148,-7.324,14.343,22.644
-0.193,0.134,1.161,-2.747,9.216,20.142
-0.191,0.130,1.166,0.427,11.230,13.123
-0.181,0.111,1.128,0.854,20.142,6.409
-0.175,0.095,1.042,2.197,29.358,1.526
-0.164,0.067,0.958,3.845,33.142,-2.869
-0.155,0.020,0.906,5.371,31.799,-7.507
-0.129,-0.021,0.871,4.639,26.001,-10.132
-0.136,-0.047,0.856,3.845,21.667,-9.094
-0.144,-0.055,0.854,2.258,17.700,-6.592
-0.144,-0.061,0.850,2.380,13.733,-4.089
-0.150,-0.065,0.838,3.479,10.315,-2.014
-0.153,-0.053,0.845,2.319,6.409,0.122
-0.155,-0.031,0.866,2.808,0.671,2.747
-0.154,-0.005,0.908,3.479,-5.005,4.883
-0.160,0.011,0.962,3.174,-9.460,5.127
-0.158,0.017,1.000,2.991,-10.376,3.662
-0.156,0.009,1.010,2.441,-7.446,1.404
-0.150,-0.008,0.999,0.244,-2.258,-0.427
-0.143,-0.027,0.981,-2.441,1.770,-1.526
-0.142,-0.044,0.971,-2.991,3.113,-1.526
-0.145,-0.033,0.970,-2.808,2.014,-0.305
-0.150,0.014,0.937,-0.793,-1.953,1.282
-0.149,0.026,0.972,3.479,-11.047,1.221
-0.142,0.024,1.041,4.272,-16.968,0.183
-0.147,0.007,1.094,4.150,-16.479,-1.343
-0.150,-0.016,1.111,1.709,-9.949,-3.601

-0.428,-0.533,2.162,96.680,-48.096,41.687
-0.655,-0.459,2.532,111.267,-58.105,62.927
-0.828,-0.279,2.900,143.677,-61.340,96.985
-0.931,-0.158,3.147,194.580,-33.569,128.601
-1.005,-0.083,3.246,216.675,23.010,144.165
-1.059,-0.156,3.248,207.336,94.849,132.324
-1.119,-0.443,3.267,154.297,178.223,88.196
-1.242,-0.788,3.201,42.664,273.682,18.372
-1.342,-1.152,2.845,-67.810,390.259,-48.218
-1.412,-1.487,2.376,-156.921,519.104,-95.703
-1.485,-1.742,1.969,-236.084,639.221,-122.498
-1.568,-2.164,1.608,-243.164,741.394,-118.896
-1.791,-2.077,1.135,-157.532,825.256,-52.002
-1.825,-1.694,0.702,-199.890,873.718,52.917
-1.862,-1.262,0.420,-253.662,908.752,143.921
-1.822,-1.033,0.005,-101.501,939.392,216.675
-1.808,-0.671,-0.427,35.400,949.341,301.270
-1.692,-0.130,-0.852,87.341,932.617,386.841
-1.298,0.595,-1.753,112.793,879.333,444.458
-0.937,1.333,-2.626,82.397,740.967,430.725
-0.763,1.696,-2.769,15.076,470.581,359.863
-0.521,1.736,-2.409,25.635,230.896,273.132
-0.477,1.571,-1.818,58.167,44.617,191.833
-0.415,1.298,-1.413,55.603,-62.866,118.469
-0.284,1.081,-1.209,12.939,-109.863,65.613
-0.160,0.878,-1.071,-45.288,-143.433,26.794
-0.067,0.659,-0.902,-80.383,-182.007,0.183
-0.025,0.493,-0.777,-63.416,-214.233,-15.198
-0.046,0.422,-0.714,-8.423,-234.131,-23.132
-0.090,0.501,-0.701,34.180,-240.906,-25.879
-0.084,0.697,-0.739,58.167,-225.098,-31.494
-0.091,0.828,-0.847,81.909,-190.125,-48.035
-0.104,0.828,-1.002,95.398,-157.166,-75.684
-0.044,0.688,-1.084,81.360,-145.691,-111.694
-0.063,0.480,-1.017,46.021,-162.354,-145.874
-0.037,0.280,-0.883,19.287,-195.923,-168.030
-0.113,0.150,-0.701,5.371,-237.488,-173.767
-0.050,0.017,-0.508,8.057,-277.344,-164.124
-0.017,-0.046,-0.234,5.920,-318.176,-143.066
0.004,-0.043,0.006,1.892,-366.821,-114.319
0.007,-0.001,0.282,13.855,-408.630,-83.374
0.016,0.077,0.493,29.480,-417.603,-57.922
0.026,0.200,0.754,21.362,-422.241,-40.527
-0.187,0.295,0.699,14.648,-424.744,-42.908
-0.277,-0.085,1.218,18.311,-445.862,-71.045
0.209,0.221,1.237,44.128,-415.588,-74.158
-0.133,0.221,0.677,119.629,-366.028,-136.475
-0.351,-0.332,0.754,76.782,-417.358,-232.910
-0.605,-0.887,1.455,12.024,-492.187,-259.888
-0.607,-1.235,2.226,22.522,-518.066,-211.914
-0.589,-1.242,2.781,38.452,-480.896,-107.544
-0.545,-0.956,3.086,66.223,-389.954,17.090
-0.235,-0.403,2.535,98.572,-262.207,105.286
-0.175,0.143,2.068,92.285,-167.664,123.474
-0.042,0.305,1.860,72.571,-113.342,70.923
-0.034,0.205,1.672,2.869,-69.092,-6.531
-0.172,-0.015,1.408,-34.363,-52.551,-73.669
-0.208,-0.428,1.415,-59.753,-76.355,-113.831
-0.217,-0.642,1.578,-65.308,-106.506,-102.417
-0.227,-0.594,1.707,-60.974,-114.075,-60.059
-0.195,-0.446,1.779,-53.467,-104.065,-16.663
-0.168,-0.260,1.797,-43.091,-84.412,15.991
-0.146,-0.022,1.717,-32.349,-60.425,36.865
-0.144,0.145,1.587,-18.127,-43.152,43.274
-0.135,0.233,1.476,-8.667,-33.569,37.170
-0.138,0.241,1.411,-5.005,-29.724,24.536
-0.136,0.176,1.389,2.258,-28.992,10.498
-0.132,0.091,1.373,6.714,-25.024,0.977
-0.129,0.036,1.314,9.033,-14.648,-2.075
-0.136,0.015,1.212,8.728,-1.892,-2.014
-0.128,0.009,1.094,6.714,7.996,-1.770
-0.109,0.001,1.010,2.808,13.672,-2.380
-0.113,-0.027,0.979,1.282,16.541,-3.723
-0.111,-0.050,0.941,0.305,14.954,-4.211
-0.107,-0.050,0.916,-0.305,10.925,-2.075
-0.094,-0.042,0.883,2.441,7.446,1.099
-0.087,-0.018,0.869,4.395,4.150,3.906
-0.085,0.002,0.893,6.470,-0.732,5.310
-0.089,0.010,0.944,8.606,-4.883,5.310
-0.100,-0.008,0.974,9.460,-5.310,3.723
-0.110,-0.025,0.957,7.751,-1.770,2.197
-0.115,-0.032,0.924,5.371,0.610,2.136
-0.128,-0.034,0.932,3.601,-1.282,2.563
-0.131,-0.036,0.981,0.916,-5.676,1.953
-0.135,-0.025,1.030,-2.502,-7.751,1.648
-0.130,-0.009,1.057,-2.808,-6.409,2.319
-0.127,0.002,1.060,-2.136,-3.540,2.014
-0.118,-0.002,1.039,-2.808,-0.610,0.671
-0.117,-0.009,1.009,-5.249,1.831,-0.488
-0.113,-0.014,1.001,-8.240,2.197,-0.732
-0.115,-0.011,1.021,-8.789,0.488,-0.549
-0.115,-0.001,1.056,-8.118,-0.488,0.427
-0.112,0.020,1.067,-5.676,1.160,1.648
-0.106,0.044,1.038,-3.784,5.005,2.563
-0.101,0.057,0.986,-0.977,8.057,2.319
-0.104,0.054,0.959,1.099,7.263,0.977
-0.100,0.028,0.976,2.319,3.052,-1.221
-0.097,-0.000,1.005,3.418,0.000,-2.747
-0.101,0.000,1.022,2.808,0.427,-1.892
-0.103,0.016,1.026,2.258,2.319,-0.977

-0.415,-0.382,2.375,104.797,11.169,-10.986
-0.575,-0.555,2.692,101.807,27.588,-3.479
-0.745,-0.701,3.065,77.942,55.969,2.991
-0.894,-0.792,3.484,26.550,99.487,6.348
-1.066,-0.850,3.792,-36.743,165.222,4.089
-1.155,-0.909,3.796,-96.313,262.146,-2.502
-1.155,-0.904,3.418,-132.019,386.963,-2.258
-1.185,-0.826,2.766,-139.465,518.982,12.451
-1.202,-0.763,2.016,-142.395,630.127,27.527
-1.128,-0.732,1.379,-157.654,701.843,36.133
-0.996,-0.720,0.861,-163.696,734.314,49.866
-0.896,-0.672,0.485,-132.812,741.516,75.256
-0.765,-0.531,0.120,-79.773,722.717,112.854
-0.710,-0.282,-0.275,-30.273,704.224,156.677
-0.677,0.006,-0.760,5.676,681.152,198.669
-0.595,0.347,-1.352,14.038,650.452,224.792
-0.582,0.690,-1.835,-10.681,597.290,223.999
-0.410,0.939,-2.201,-67.505,510.925,191.956
-0.296,0.999,-2.366,-141.113,338.318,130.066
-0.184,0.757,-2.005,-158.936,154.236,55.847
-0.236,0.436,-1.418,-116.394,0.122,0.732
-0.127,0.210,-1.016,-74.707,-95.520,-24.963
0.060,0.070,-0.797,-67.383,-135.681,-29.907
0.134,0.086,-0.658,-66.956,-145.386,-15.747
0.206,0.195,-0.591,-33.264,-144.470,12.085
0.237,0.367,-0.576,3.418,-136.841,38.025
0.235,0.535,-0.587,30.212,-124.573,48.035
0.227,0.649,-0.629,50.415,-110.229,39.795
0.229,0.676,-0.676,58.838,-95.764,18.494
0.227,0.592,-0.723,65.430,-85.999,-12.207
0.189,0.462,-0.743,68.726,-84.290,-43.030
0.165,0.364,-0.700,68.726,-96.436,-62.561
0.164,0.305,-0.584,81.604,-122.253,-69.214
0.150,0.285,-0.398,96.191,-154.114,-65.186
0.159,0.297,-0.179,101.990,-185.791,-57.800
0.209,0.301,0.006,105.408,-216.003,-52.734
0.191,0.297,0.231,104.736,-228.882,-52.856
0.178,0.304,0.373,97.290,-229.919,-54.810
0.057,0.290,0.391,89.233,-217.834,-58.960
0.106,0.165,0.350,78.369,-208.679,-65.063
0.187,0.528,-0.231,110.718,-215.576,-71.777
-0.093,0.530,-0.318,164.368,-290.588,-134.155
-0.239,0.040,0.236,124.390,-403.442,-213.684
-0.168,-0.437,0.739,36.499,-459.106,-247.437
-0.171,-0.722,1.012,-12.512,-469.055,-232.056
-0.253,-0.852,1.236,-13.123,-469.299,-188.110
-0.402,-0.728,1.578,-16.052,-481.384,-125.610
-0.376,-0.585,1.954,5.005,-470.581,-62.988
-0.224,-0.458,2.123,32.104,-416.748,-15.503
-0.148,-0.327,2.139,31.128,-338.684,7.385
-0.127,-0.232,1.993,11.230,-252.563,7.385
-0.161,-0.262,1.704,-0.366,-184.326,-10.132
-0.139,-0.421,1.507,-14.526,-146.362,-30.396
-0.115,-0.559,1.458,-24.597,-139.465,-34.546
-0.217,-0.555,1.521,-21.851,-150.940,-18.677
-0.242,-0.390,1.670,-20.142,-169.373,10.010
-0.222,-0.159,1.833,-10.254,-182.373,35.217
-0.208,0.009,1.948,-2.625,-179.687,43.335
-0.179,0.033,1.986,-7.751,-157.532,29.602
-0.176,-0.070,1.939,-17.883,-124.390,4.333
-0.174,-0.228,1.771,-26.855,-91.797,-14.465
-0.216,-0.306,1.629,-26.123,-76.172,-17.578
-0.171,-0.271,1.609,-17.273,-74.036,-9.216
-0.171,-0.260,1.592,-15.320,-64.758,0.977
-0.191,-0.165,1.563,-19.775,-50.842,14.221
-0.184,-0.001,1.511,-22.827,-37.170,24.841
-0.164,0.082,1.443,-24.658,-21.423,23.132
-0.149,0.093,1.354,-25.269,-6.714,14.954
-0.132,0.078,1.284,-24.292,6.836,8.728
-0.123,0.068,1.214,-21.301,19.409,3.906
-0.130,0.060,1.144,-15.625,28.748,0.671
-0.133,0.036,1.057,-5.981,33.081,-0.549
-0.132,0.001,1.008,3.967,32.837,-0.916
-0.123,-0.023,0.966,13.855,29.907,-0.061
-0.114,-0.009,0.913,19.104,29.358,2.686
-0.102,0.023,0.815,20.569,31.677,4.211
-0.096,0.022,0.731,17.395,32.471,1.831
-0.100,0.016,0.710,8.667,26.733,-0.916
-0.119,-0.007,0.780,2.136,13.672,-3.357
-0.129,-0.040,0.875,-0.549,2.747,-4.883
-0.131,-0.035,0.906,-0.977,0.854,-3.784
-0.138,-0.021,0.903,-1.709,3.235,-2.014
-0.143,-0.020,0.920,-2.380,3.845,-0.732
-0.152,-0.005,0.935,-1.587,4.028,0.549
-0.159,0.018,0.953,-0.854,3.235,1.465
-0.153,0.041,0.988,0.671,0.732,1.587
-0.147,0.041,1.008,4.150,-0.977,0.488
-0.142,0.024,1.001,6.104,0.366,-1.587
-0.133,0.018,0.935,4.944,2.380,-4.578
-0.150,-0.012,0.936,3.052,-1.038,-7.690
-0.151,-0.048,0.977,1.831,-7.019,-8.728
-0.136,-0.057,1.024,1.404,-11.719,-6.592
-0.132,-0.037,1.049,1.404,-11.108,-2.502
-0.137,-0.000,1.055,0.549,-7.568,0.305
-0.138,0.025,1.057,0.793,-4.761,0.854
-0.141,0.033,1.062,1.282,-2.686,-0.427
-0.149,0.015,1.068,2.502,-0.061,-2.625
-0.144,-0.022,1.053,3.296,2.808,-5.249
-0.134,-0.055,1.017,4.089,6.287,-5.859
-0.122,-0.057,0.977,4.333,8.118,-3.723

-0.527,-0.045,2.517,41.809,-55.847,2.258
-0.689,-0.191,2.849,48.340,-40.100,-6.836
-0.823,-0.402,3.049,52.673,-3.784,-18.188
-0.887,-0.625,3.055,53.223,48.523,-23.499
-0.937,-0.740,2.948,42.236,107.422,-17.273
-0.916,-0.732,2.787,21.484,159.546,-1.892
-0.902,-0.735,2.656,1.221,207.214,11.047
-0.939,-0.774,2.632,-39.063,250.061,10.559
-0.823,-0.909,2.434,-73.303,301.697,3.235
-0.776,-1.016,2.037,-95.581,374.695,4.761
-0.810,-1.015,1.664,-120.300,444.275,23.376
-0.808,-0.866,1.308,-135.620,495.422,57.373
-0.797,-0.708,1.000,-123.474,535.095,95.215
-0.752,-0.538,0.734,-107.910,568.787,126.465
-0.738,-0.355,0.401,-87.769,597.839,153.870
-0.702,-0.162,-0.069,-62.622,611.145,175.354
-0.623,0.073,-0.639,-52.795,613.037,186.157
-0.488,0.318,-1.235,-67.627,591.919,179.626
-0.377,0.535,-1.666,-98.206,529.846,153.625
-0.207,0.629,-1.815,-103.699,426.392,112.305
-0.121,0.681,-1.849,-89.417,268.616,68.604
-0.054,0.577,-1.591,-59.265,123.535,27.161
-0.023,0.412,-1.337,-47.607,27.405,-7.874
0.072,0.246,-1.214,-57.251,-22.278,-27.893
0.122,0.114,-1.198,-55.481,-50.537,-30.640
0.140,0.043,-1.217,-45.105,-75.500,-20.020
0.223,0.106,-1.182,-33.813,-104.492,-1.587
0.101,0.261,-0.988,-11.108,-127.991,7.446
0.160,0.370,-0.919,-22.766,-124.756,3.723
0.165,0.468,-0.948,-32.715,-119.263,-0.916
0.134,0.542,-0.912,-19.836,-134.277,-8.362
0.138,0.557,-0.796,-3.601,-162.598,-16.052
0.146,0.555,-0.627,19.104,-190.369,-23.743
0.147,0.534,-0.513,36.255,-214.722,-32.166
0.162,0.466,-0.382,44.922,-233.521,-43.823
0.131,0.335,-0.203,47.974,-246.338,-58.411
0.110,0.179,0.038,47.424,-254.333,-67.566
0.099,0.075,0.222,44.739,-248.230,-63.660
0.076,0.060,0.341,45.288,-237.122,-48.828
0.029,0.106,0.416,50.293,-230.286,-32.471
0.005,0.158,0.536,53.955,-232.178,-21.729
0.049,0.097,0.662,59.082,-246.826,-24.414
-0.055,-0.039,0.955,65.063,-272.644,-38.452
-0.219,-0.125,1.037,78.247,-301.025,-53.284
-0.073,-0.613,1.748,84.717,-331.421,-63.782
0.073,-0.790,2.136,89.355,-292.542,-26.245
-0.046,0.063,1.406,112.671,-191.528,28.381
-0.039,0.331,0.945,86.304,-171.509,-8.850
-0.079,-0.022,0.945,64.941,-232.056,-87.830
-0.196,-0.366,1.319,33.264,-291.992,-121.948
-0.245,-0.625,1.880,8.545,-313.843,-107.910
-0.185,-0.715,2.349,-1.587,-286.743,-64.575
-0.077,-0.423,2.219,-0.427,-204.590,-13.123
-0.140,-0.092,1.817,-2.869,-119.629,8.423
-0.119,-0.062,1.547,-5.249,-84.839,-4.883
-0.110,-0.167,1.409,-5.981,-75.684,-22.827
-0.131,-0.225,1.370,-7.019,-80.017,-25.146
-0.112,-0.122,1.295,-3.052,-94.116,-15.686
-0.142,-0.054,1.398,-3.723,-118.164,-11.475
-0.141,-0.053,1.635,-6.165,-136.047,-11.902
-0.155,-0.027,1.784,-9.521,-127.808,-11.108
-0.210,-0.025,1.914,-10.681,-105.530,-6.775
-0.195,0.052,1.915,-6.226,-74.036,2.930
-0.198,0.136,1.788,1.953,-43.335,8.484
-0.192,0.139,1.669,6.653,-24.170,3.052
-0.203,0.042,1.601,10.803,-15.503,-7.690
-0.201,-0.075,1.556,13.733,-11.230,-15.686
-0.190,-0.159,1.513,15.625,-6.409,-16.846
-0.167,-0.187,1.450,16.052,0.305,-11.719
-0.151,-0.152,1.366,15.442,7.996,-3.052
-0.126,-0.092,1.263,13.611,15.747,2.808
-0.107,-0.040,1.148,10.620,22.217,5.188
-0.087,-0.001,1.043,5.371,26.978,4.639
-0.090,0.021,1.015,-1.221,28.809,1.770
-0.092,0.021,1.003,-6.714,28.259,-2.563
-0.092,-0.006,0.976,-8.423,27.954,-6.958
-0.094,-0.031,0.928,-9.033,30.212,-8.362
-0.087,-0.033,0.882,-8.728,32.959,-6.592
-0.092,-0.017,0.842,-3.174,32.349,-3.235
-0.096,0.014,0.824,6.470,26.550,0.305
-0.084,0.038,0.830,16.907,18.982,2.625
-0.072,0.042,0.838,23.621,13.794,1.038
-0.066,0.011,0.829,24.658,12.878,-3.601
-0.057,-0.025,0.781,21.973,14.832,-8.484
-0.052,-0.049,0.724,17.273,16.052,-10.254
-0.068,-0.059,0.713,12.512,11.902,-10.010
-0.074,-0.071,0.766,9.155,1.831,-10.193
-0.091,-0.071,0.828,6.531,-10.498,-10.498
-0.079,-0.104,0.939,7.202,-20.996,-10.376
-0.081,-0.118,1.023,5.859,-21.912,-7.507
-0.097,-0.114,1.072,4.761,-17.517,-2.869
-0.093,-0.114,1.078,7.690,-12.024,0.305
-0.101,-0.113,1.061,11.536,-7.385,2.747
-0.111,-0.110,1.052,11.902,-5.859,3.418
-0.115,-0.116,1.076,7.812,-7.263,2.808
-0.109,-0.125,1.120,3.967,-9.705,2.808
-0.106,-0.131,1.179,-2.258,-10.254,3.052
-0.101,-0.118,1.205,-10.376,-6.470,3.723
-0.108,-0.101,1.207,-17.517,-0.916,5.066
-0.099,-0.065,1.186,-22.888,4.761,7.446

-0.335,-0.592,2.070,9.766,30.884,28.992
-0.370,-0.742,2.154,0.000,54.199,37.720
-0.429,-0.726,2.236,-12.146,82.214,59.509
-0.592,-0.546,2.439,-24.048,102.844,88.806
-0.753,-0.151,2.737,-41.077,106.445,125.854
-0.756,0.230,3.010,-29.724,117.188,167.969
-0.718,0.349,3.126,-1.099,163.696,186.157
-0.544,0.477,3.020,-41.382,242.615,157.166
-0.472,0.400,2.628,-109.924,355.713,86.609
-0.619,0.127,2.204,-173.767,477.112,-1.648
-0.784,-0.238,1.792,-220.093,572.144,-76.904
-0.820,-0.561,1.388,-212.219,628.479,-107.788
-0.767,-0.731,0.864,-144.836,664.856,-83.374
-0.738,-0.612,0.328,-77.576,699.463,-12.634
-0.703,-0.316,-0.265,-41.382,707.214,66.772
-0.696,-0.019,-0.730,-14.954,696.716,119.446
-0.611,0.266,-1.129,-11.108,651.917,135.437
-0.577,0.454,-1.414,-25.879,578.308,123.108
-0.440,0.515,-1.640,-45.898,494.995,88.867
-0.309,0.412,-1.750,-81.970,398.071,39.124
-0.226,0.143,-1.705,-107.666,284.302,-2.747
-0.149,-0.074,-1.523,-109.741,188.477,-15.808
-0.129,-0.149,-1.382,-82.886,120.667,-6.042
-0.105,-0.092,-1.330,-33.264,79.102,11.536
-0.076,0.054,-1.308,13.611,51.208,28.992
-0.073,0.229,-1.278,46.143,23.499,39.917
-0.065,0.394,-1.244,68.481,-6.470,42.175
-0.039,0.527,-1.198,94.055,-37.292,31.311
-0.016,0.583,-1.100,123.047,-72.388,7.629
0.008,0.581,-0.926,142.212,-110.474,-19.775
0.065,0.565,-0.716,148.437,-145.935,-44.922
0.114,0.540,-0.525,150.635,-176.514,-66.650
0.103,0.486,-0.416,154.724,-204.407,-84.900
0.021,0.467,-0.378,161.194,-223.267,-98.267
0.036,0.357,-0.276,173.157,-230.286,-111.084
0.119,0.222,-0.237,141.113,-247.803,-119.812
-0.012,0.397,-0.102,74.646,-278.137,-107.056
0.122,0.765,-0.326,111.450,-339.294,-130.432
-0.348,0.426,0.033,128.540,-453.979,-224.060
-0.486,-0.037,0.456,57.312,-548.462,-287.842
-0.508,-0.419,0.777,-2.380,-602.783,-310.608
-0.559,-0.716,1.104,-41.992,-629.089,-313.965
-0.615,-0.902,1.532,-96.985,-654.419,-292.358
-0.702,-1.075,2.108,-122.253,-664.612,-242.126
-0.699,-1.205,2.445,-82.214,-623.535,-173.340
-0.523,-1.203,2.670,-32.593,-537.964,-90.637
-0.388,-0.954,2.701,-17.029,-406.677,-7.690
-0.289,-0.652,2.426,-18.921,-266.296,47.852
-0.218,-0.429,2.108,-32.654,-164.429,67.627
-0.238,-0.269,1.994,-53.406,-124.451,61.584
-0.268,-0.145,2.016,-60.364,-128.296,46.631
-0.214,-0.032,2.100,-41.870,-145.203,37.964
-0.269,0.097,2.093,-9.460,-153.809,32.043
-0.204,0.092,2.182,-7.996,-147.644,16.663
-0.214,0.031,2.190,-36.255,-112.976,0.488
-0.127,-0.013,2.169,-45.105,-67.261,-12.085
-0.214,-0.098,1.988,-36.438,-20.325,-23.499
-0.190,-0.150,1.777,-54.382,13.672,-25.513
-0.198,-0.157,1.539,-52.063,40.466,-12.695
-0.172,-0.102,1.319,-37.048,60.730,8.484
-0.150,-0.022,1.143,-19.470,73.608,28.137
-0.144,0.057,1.050,-0.549,78.247,37.781
-0.073,0.064,0.933,11.292,81.299,36.804
-0.069,0.095,0.773,16.052,77.637,33.508
-0.062,0.102,0.709,17.883,57.251,27.344
-0.052,0.098,0.724,8.667,36.987,21.301
-0.063,0.094,0.753,5.310,22.156,16.113
-0.055,0.087,0.777,-2.014,12.634,10.559
-0.053,0.077,0.781,-10.437,7.385,6.409
-0.042,0.067,0.786,-8.057,3.784,4.211
-0.042,0.076,0.841,-3.052,-0.427,2.869
-0.044,0.078,0.902,-1.892,-3.052,0.916
-0.037,0.075,0.950,-2.197,-4.272,-0.244
-0.039,0.073,0.988,0.061,-4.150,0.061
-0.041,0.087,1.001,2.625,-2.197,1.404
-0.047,0.099,1.014,4.883,-0.366,0.488
-0.031,0.076,1.045,5.188,1.160,-2.502
-0.031,0.029,1.048,5.493,3.174,-8.179
-0.038,-0.053,1.078,2.991,3.540,-15.015
-0.039,-0.144,1.107,0.183,4.272,-19.165
-0.046,-0.200,1.137,-2.502,5.981,-17.700
-0.053,-0.221,1.142,0.732,9.521,-9.766
-0.051,-0.189,1.093,4.517,16.174,0.977
-0.049,-0.119,1.025,3.540,23.376,10.742
-0.043,-0.068,0.959,2.380,29.114,15.869
-0.022,-0.041,0.895,-2.625,31.677,14.954
-0.006,-0.039,0.848,-8.118,30.640,11.719
-0.001,-0.026,0.834,-12.207,25.879,9.827
-0.000,-0.015,0.856,-12.329,19.043,10.498
-0.010,0.001,0.903,-13.977,12.024,11.719
-0.016,0.023,0.954,-18.494,6.287,12.573
-0.019,0.019,0.989,-18.921,2.869,11.780
0.012,0.002,1.000,-20.386,1.770,10.010
0.025,0.004,1.001,-24.231,3.113,9.277
0.024,0.016,0.999,-21.057,5.493,11.169
0.041,0.031,0.989,-15.686,6.958,14.099
0.061,0.063,0.980,-13.245,8.118,15.381
0.076,0.103,0.953,-13.855,9.399,14.404
0.060,0.122,0.958,-16.418,5.737,10.925
0.045,0.116,0.999,-15.198,-0.549,5.981

-1.150,-0.279,2.584,-349.182,-820.374,-93.933
-1.117,-0.117,3.315,-309.326,-755.432,-13.611
-0.694,0.130,3.540,-194.336,-615.356,37.048
-0.612,0.210,3.263,-80.383,-435.181,42.358
-0.354,0.319,2.964,-106.384,-283.752,14.343
-0.373,0.397,2.859,-233.521,-185.242,-27.771
-0.405,0.325,2.688,-330.566,-123.657,-71.106
-0.425,0.127,2.247,-315.063,-71.777,-99.670
-0.307,-0.342,2.390,-140.869,10.010,-93.811
-0.247,-0.038,1.731,14.465,114.685,-57.678
-0.304,0.161,1.231,-161.804,152.222,-26.001
-0.209,0.303,0.947,-208.252,144.409,-21.606
-0.119,0.419,0.872,-161.804,105.957,-26.978
-0.082,0.428,0.838,-90.271,66.589,-33.325
-0.065,0.449,0.835,-31.799,39.917,-36.011
-0.025,0.428,0.866,8.057,24.292,-33.997
-0.020,0.402,0.971,36.804,13.062,-29.358
-0.013,0.378,1.126,49.927,2.930,-22.766
-0.013,0.377,1.239,38.635,-5.188,-12.024
-0.064,0.389,1.234,5.371,-11.169,4.517
-0.130,0.385,1.156,-28.931,-18.982,20.874
-0.169,0.394,1.205,-40.833,-37.170,29.358
-0.181,0.279,1.125,-27.588,-65.857,28.503
-0.306,0.278,1.208,-38.818,-75.317,31.921
-0.231,0.299,1.453,-38.696,-81.421,36.438
-0.318,0.268,1.803,11.536,-47.302,32.471
-0.315,0.261,2.015,57.739,-3.784,33.752
-0.380,0.354,2.184,55.786,53.284,44.983
-0.402,0.448,2.190,68.359,123.474,52.307
-0.403,0.498,2.028,85.632,198.730,53.406
-0.348,0.536,1.761,70.862,263.855,60.852
-0.288,0.562,1.401,48.218,319.092,74.341
-0.227,0.672,0.956,58.838,354.614,84.961
-0.227,0.740,0.631,96.863,350.159,74.768
-0.136,0.698,0.514,100.769,292.847,43.579
-0.035,0.554,0.629,61.157,224.854,3.967
0.036,0.466,0.919,24.414,155.151,-37.659
0.028,0.374,1.223,8.972,103.699,-74.524
0.072,0.234,1.444,19.531,95.032,-91.736
0.064,0.050,1.482,50.476,132.690,-94.177
0.070,-0.058,1.390,61.829,192.688,-87.830
0.090,-0.061,1.266,44.434,249.146,-71.411
0.076,-0.032,1.159,40.588,284.912,-51.453
0.096,0.037,1.055,48.462,299.744,-33.142
0.109,0.063,0.899,75.134,307.251,-20.325
0.136,0.045,0.704,101.624,313.904,-14.526
0.198,0.014,0.499,109.253,320.801,-13.733
0.242,-0.014,0.311,104.370,327.332,-13.428
0.250,-0.047,0.190,101.440,325.256,-11.780
0.297,-0.071,0.091,101.746,305.908,-8.972
0.349,-0.043,0.040,86.487,272.461,-1.038
0.385,-0.027,0.011,73.242,238.464,7.385
0.433,-0.043,0.010,63.965,205.139,12.085
0.515,-0.036,0.047,38.940,171.875,13.367
0.553,-0.011,0.090,10.010,142.578,14.954
0.555,0.001,0.058,8.728,121.826,16.174
0.576,0.011,-0.015,16.724,106.628,14.893
0.573,-0.006,-0.038,13.123,91.248,11.414
0.606,-0.028,-0.026,-0.916,75.012,10.559
0.642,-0.019,-0.009,-7.385,58.777,12.207
0.650,0.008,0.005,-1.465,42.358,14.832
0.650,0.031,0.015,13.611,26.550,17.151
0.668,0.049,0.044,24.536,10.681,17.944
0.686,0.078,0.126,22.888,-6.958,16.357
0.709,0.124,0.246,18.005,-26.123,14.221
0.707,0.127,0.357,22.278,-40.588,11.902
0.725,0.119,0.425,31.067,-46.204,9.583
0.731,0.123,0.470,31.006,-44.983,5.432
0.754,0.181,0.445,26.733,-39.368,-0.061
0.742,0.174,0.394,35.217,-36.499,-12.268
0.727,0.082,0.438,35.095,-41.382,-27.954
0.785,0.036,0.479,19.287,-44.250,-37.354
0.790,-0.021,0.541,6.409,-49.866,-44.861
0.779,-0.087,0.615,-2.197,-57.068,-48.401
0.796,-0.160,0.675,-9.705,-59.814,-46.997
0.822,-0.207,0.712,-20.874,-57.739,-41.809
0.833,-0.215,0.737,-28.442,-52.551,-33.447
0.820,-0.208,0.751,-23.376,-46.875,-23.560
0.820,-0.196,0.751,-9.888,-40.649,-13.672
0.819,-0.166,0.748,0.793,-33.813,-5.188
0.810,-0.115,0.736,2.502,-27.527,0.916
0.810,-0.062,0.724,3.540,-23.132,5.066
0.802,-0.026,0.708,9.583,-19.714,6.348
0.802,-0.011,0.699,13.306,-16.541,5.737
0.804,0.004,0.707,7.996,-14.587,3.662
0.799,0.015,0.711,0.610,-13.550,1.099
0.786,0.013,0.700,0.549,-11.353,-1.099
0.772,-0.006,0.677,5.249,-7.751,-3.296
0.769,-0.015,0.657,3.540,-4.944,-4.944
0.752,-0.010,0.645,-3.296,-3.235,-6.042
0.759,-0.021,0.634,-3.113,-1.953,-7.690
0.760,-0.057,0.630,-1.404,-0.916,-9.216
0.762,-0.097,0.645,-7.629,-0.732,-10.742
0.765,-0.143,0.673,-20.203,-0.549,-10.742
0.770,-0.176,0.696,-29.785,0.549,-8.423
0.768,-0.185,0.707,-31.738,3.723,-2.258
0.765,-0.176,0.695,-22.400,8.972,5.920
0.768,-0.146,0.672,-12.512,13.916,13.733
0.778,-0.085,0.658,-9.888,15.747,19.531
0.775,-0.015,0.656,-10.437,14.099,23.071

0.517,0.323,3.898,902.649,16.968,-84.106
0.808,-0.837,4.000,363.525,171.265,-57.312
-0.028,0.072,2.854,-685.364,326.965,129.761
-0.373,0.442,-0.315,-669.678,333.740,222.961
-0.096,1.091,-0.281,-336.365,153.259,231.018
-0.055,1.285,0.533,-213.135,-84.473,174.561
-0.219,1.041,0.871,44.250,-294.373,78.735
-0.395,0.505,1.482,245.605,-341.064,-8.057
-0.341,0.183,2.024,229.431,-300.110,-50.903
-0.277,0.324,2.640,26.550,-207.703,-35.828
-0.328,0.584,2.991,-36.926,-87.036,-6.104
-0.439,0.674,2.916,55.115,49.011,5.066
-0.490,0.674,2.601,133.911,178.833,1.099
-0.501,0.663,2.259,119.812,282.104,-13.489
-0.580,0.592,1.870,73.547,357.422,-37.109
-0.609,0.420,1.484,59.753,410.217,-63.599
-0.586,0.245,1.115,55.298,446.167,-84.351
-0.556,0.115,0.844,49.744,465.759,-95.703
-0.415,-0.001,0.586,62.622,453.613,-95.642
-0.189,-0.090,0.418,96.558,417.786,-83.923
-0.043,-0.123,0.344,131.531,359.070,-60.486
0.055,-0.089,0.384,148.743,292.175,-33.630
0.138,-0.068,0.448,144.287,235.962,-17.273
0.214,-0.062,0.545,118.286,198.242,-12.512
0.260,-0.080,0.652,85.266,179.077,-14.709
0.296,-0.121,0.711,58.350,171.448,-18.188
0.285,-0.185,0.693,42.908,172.668,-20.508
0.321,-0.237,0.603,39.063,183.838,-18.433
0.336,-0.267,0.469,41.931,199.036,-9.644
0.352,-0.262,0.327,47.485,209.351,5.493
0.387,-0.210,0.206,51.575,207.825,25.269
0.427,-0.127,0.130,58.411,193.604,43.701
0.478,-0.031,0.117,65.308,163.330,54.688
0.494,0.071,0.154,55.298,123.230,57.617
0.468,0.132,0.224,42.114,89.355,54.260
0.507,0.145,0.256,34.729,72.510,45.044
0.521,0.120,0.250,23.193,70.618,35.095
0.527,0.103,0.207,2.686,76.172,27.527
0.529,0.084,0.126,-22.888,82.642,21.057
0.534,0.048,0.058,-36.682,83.252,16.418
0.544,0.014,0.011,-27.588,76.172,17.700
0.577,0.034,-0.014,-10.864,60.791,24.414
0.595,0.119,-0.005,-1.099,36.987,32.410
0.588,0.186,0.053,12.329,10.742,36.133
0.593,0.220,0.142,23.621,-11.169,35.278
0.627,0.244,0.247,16.479,-26.978,30.701
0.637,0.258,0.353,0.671,-35.767,23.132
0.649,0.248,0.428,-6.958,-37.231,12.756
0.673,0.231,0.490,-11.169,-34.729,1.221
0.687,0.233,0.562,-16.907,-33.020,-8.911
0.693,0.214,0.622,-10.498,-32.959,-18.250
0.699,0.156,0.654,7.141,-29.541,-28.442
0.724,0.084,0.661,16.541,-20.691,-39.001
0.749,0.025,0.670,9.033,-10.925,-48.157
0.754,-0.036,0.677,-1.038,-4.089,-55.908
0.761,-0.128,0.660,-0.793,0.427,-61.768
0.764,-0.232,0.629,0.977,5.005,-64.270
0.792,-0.297,0.606,-7.996,9.155,-60.852
0.803,-0.329,0.593,-17.883,11.230,-51.880
0.805,-0.345,0.573,-15.137,9.888,-40.222
0.811,-0.335,0.553,-5.920,5.676,-26.733
0.813,-0.295,0.545,2.808,-0.427,-11.475
0.815,-0.232,0.551,8.484,-7.935,2.686
0.814,-0.155,0.583,10.803,-15.503,13.916
0.815,-0.090,0.636,10.559,-20.752,19.958
0.839,-0.034,0.707,5.127,-25.635,21.301
0.823,0.007,0.773,-0.061,-29.419,20.020
0.803,0.024,0.807,2.563,-27.283,16.846
0.809,0.028,0.807,3.662,-19.104,12.817
0.815,0.026,0.794,0.183,-8.606,8.667
0.800,0.017,0.772,-4.395,-0.122,4.395
0.789,0.001,0.737,-4.761,5.798,1.099
0.770,-0.021,0.696,0.061,9.888,0.244
0.763,-0.034,0.658,3.845,11.902,1.587
0.755,-0.024,0.634,1.648,11.353,4.028
0.748,-0.008,0.627,-2.441,9.705,6.287
0.747,0.009,0.621,-4.028,7.751,7.690
0.743,0.029,0.609,-4.089,6.531,7.446
0.737,0.031,0.591,-2.930,6.348,6.042
0.730,0.013,0.568,-3.418,6.592,3.479
0.732,-0.002,0.553,-11.658,6.836,0.854
0.734,-0.008,0.550,-21.301,6.348,-1.160
0.739,-0.036,0.549,-20.447,5.188,-3.357
0.744,-0.063,0.547,-15.869,3.601,-5.371
0.751,-0.071,0.551,-16.052,1.709,-5.371
0.750,-0.071,0.562,-11.475,-0.916,-3.296
0.757,-0.068,0.571,-3.906,-4.211,-0.488
0.760,-0.048,0.589,-0.977,-8.606,3.174
0.757,-0.022,0.614,0.000,-12.451,6.958
0.753,-0.001,0.640,1.099,-14.771,9.155
0.759,0.014,0.661,0.732,-14.893,9.338
0.755,0.027,0.676,-1.587,-13.245,8.179
0.748,0.029,0.682,-4.517,-10.681,5.859
0.757,0.016,0.685,-8.484,-7.629,2.869
0.753,0.001,0.696,-15.991,-5.188,0.000
0.752,-0.009,0.705,-23.804,-3.296,-1.770
0.756,-0.017,0.709,-23.926,-1.099,-2.869
0.751,-0.024,0.697,-15.564,1.160,-2.563
0.761,-0.027,0.673,-5.798,3.601,-1.038
0.759,-0.029,0.648,-1.465,5.676,0.549

-1.652,-0.702,2.081,-529.297,-786.011,-290.100
-1.878,-0.561,3.234,-786.011,-828.308,-154.297
-1.835,-0.230,4.000,-836.670,-789.246,31.372
-0.397,2.904,4.000,-317.505,-534.607,130.493
-0.228,-2.411,2.012,1263.367,-148.865,-13.123
-1.018,-0.055,3.713,272.278,41.077,186.890
-0.740,-0.013,1.840,-402.710,184.937,308.044
-0.621,0.679,1.445,-486.694,253.235,302.612
-0.555,1.077,1.191,-357.971,240.234,259.888
-0.521,1.023,0.937,-52.979,176.331,196.106
-0.385,0.801,0.816,138.855,90.210,136.902
-0.281,0.654,0.982,131.226,-0.183,89.722
-0.342,0.682,1.381,18.982,-83.069,52.490
-0.450,0.740,1.921,-70.618,-143.127,22.278
-0.565,0.669,2.334,-66.711,-167.114,-7.690
-0.601,0.442,2.651,-3.540,-139.526,-39.734
-0.596,0.186,2.801,41.443,-62.439,-64.209
-0.625,0.007,2.828,41.321,47.485,-75.562
-0.719,-0.102,2.761,22.339,165.833,-75.989
-0.824,-0.153,2.580,7.568,276.428,-65.674
-0.913,-0.129,2.317,-12.390,369.751,-47.302
-0.963,-0.086,2.001,-39.246,442.566,-32.837
-0.945,-0.092,1.659,-55.298,499.451,-33.081
-0.922,-0.133,1.290,-46.875,547.791,-41.809
-0.856,-0.209,0.893,-13.184,590.759,-44.250
-0.805,-0.281,0.514,35.034,622.070,-32.043
-0.650,-0.317,0.164,78.491,629.089,-0.916
-0.508,-0.255,-0.118,96.130,618.530,44.312
-0.364,-0.100,-0.336,104.980,587.708,92.407
-0.265,0.089,-0.501,129.089,543.518,135.559
-0.158,0.276,-0.638,160.767,491.150,169.800
-0.009,0.518,-0.898,183.838,430.786,187.805
0.151,0.701,-1.137,193.542,347.412,173.889
0.114,0.749,-1.165,175.964,233.032,132.690
0.204,0.733,-1.056,132.263,124.573,83.069
0.299,0.647,-0.835,75.195,32.043,32.288
0.375,0.534,-0.563,15.747,-43.640,-12.817
0.391,0.410,-0.289,-30.090,-102.539,-48.645
0.382,0.309,-0.013,-52.612,-141.846,-72.449
0.436,0.224,0.209,-44.434,-160.706,-86.060
0.495,0.132,0.370,-15.320,-163.330,-94.727
0.514,0.047,0.497,5.920,-157.227,-98.267
0.516,-0.039,0.591,14.832,-145.691,-93.445
0.548,-0.094,0.650,11.230,-128.967,-81.421
0.576,-0.111,0.688,-2.136,-112.122,-65.674
0.596,-0.103,0.741,-14.404,-101.135,-49.744
0.615,-0.071,0.813,-14.954,-94.971,-36.804
0.651,-0.054,0.863,0.977,-90.332,-29.724
0.684,0.005,0.887,27.466,-81.787,-29.236
0.656,-0.032,0.940,52.246,-76.111,-40.894
0.682,-0.129,0.967,44.556,-63.538,-54.443
0.700,-0.223,0.994,9.460,-46.448,-59.265
0.699,-0.285,0.992,-22.339,-27.832,-55.847
0.700,-0.320,0.950,-34.668,-12.451,-47.180
0.694,-0.313,0.924,-29.785,-3.174,-35.339
0.698,-0.302,0.893,-15.503,2.747,-22.888
0.690,-0.279,0.866,-5.249,5.981,-9.277
0.680,-0.228,0.840,-3.540,5.920,5.981
0.665,-0.137,0.828,-5.066,1.831,21.851
0.656,-0.032,0.824,-1.526,-3.113,33.447
0.648,0.051,0.814,7.568,-5.737,37.476
0.645,0.104,0.793,13.367,-4.822,34.241
0.638,0.126,0.764,11.536,-2.380,26.611
0.632,0.125,0.730,3.174,-0.244,16.663
0.620,0.112,0.709,-9.583,0.610,6.104
0.610,0.082,0.705,-21.667,-0.366,-2.808
0.615,0.038,0.729,-30.090,-3.479,-9.766
0.613,-0.001,0.764,-37.537,-7.812,-13.428
0.598,-0.029,0.790,-40.344,-9.705,-13.794
0.611,-0.046,0.797,-36.316,-7.996,-12.268
0.610,-0.061,0.783,-28.381,-4.517,-8.789
0.611,-0.056,0.753,-27.039,0.244,-3.601
0.614,-0.044,0.713,-28.198,5.188,0.671
0.612,-0.034,0.673,-26.123,7.507,3.540
0.618,-0.023,0.656,-23.376,5.371,5.127
0.613,-0.007,0.672,-22.827,-0.549,6.592
0.603,0.012,0.711,-21.545,-8.911,8.179
0.591,0.034,0.768,-18.188,-16.357,9.521
0.595,0.065,0.832,-14.221,-21.667,9.949
0.585,0.082,0.881,-6.958,-22.949,9.338
0.594,0.083,0.889,-2.258,-18.555,7.874
0.596,0.088,0.861,-8.667,-10.010,5.493
0.598,0.090,0.811,-22.217,-1.526,2.625
0.603,0.079,0.761,-32.410,3.784,-1.160
0.600,0.058,0.723,-35.889,4.456,-5.188
0.603,0.043,0.713,-35.828,1.099,-7.141
0.598,0.025,0.723,-31.128,-5.066,-6.531
0.593,0.027,0.754,-26.733,-11.230,-3.723
0.581,0.043,0.805,-21.301,-16.357,0.793
0.579,0.060,0.856,-11.047,-19.287,5.371
0.582,0.077,0.889,-3.113,-18.982,8.423
0.582,0.097,0.900,-0.244,-14.893,8.789
0.582,0.109,0.885,0.244,-8.423,6.836
0.579,0.103,0.843,2.014,-1.770,3.113
0.579,0.083,0.793,3.723,3.052,-0.732
0.583,0.063,0.757,2.625,5.371,-3.418
0.576,0.042,0.729,2.380,4.456,-4.211
0.575,0.036,0.723,1.709,1.587,-2.747
0.577,0.045,0.742,2.014,-2.380,-0.183
0.577,0.052,0.764,6.409,-6.287,2.319

0.215,0.237,0.812,55.908,90.515,22.461
0.318,0.160,0.909,50.964,70.740,18.555
0.447,0.204,0.836,53.162,60.303,24.170
0.335,0.315,0.704,48.706,54.810,24.841
0.437,0.270,0.792,54.810,35.095,13.306
0.463,0.186,0.801,48.645,24.719,2.502
0.421,0.123,0.840,38.025,19.531,-0.427
0.413,0.115,0.835,28.625,17.700,2.319
0.425,0.143,0.845,19.348,15.686,5.432
0.436,0.169,0.856,11.169,10.986,5.554
0.440,0.172,0.851,3.784,3.967,3.296
0.431,0.163,0.856,-4.456,-4.578,1.648
0.426,0.162,0.862,-15.625,-13.000,2.380
0.417,0.169,0.883,-22.095,-19.897,3.967
0.425,0.169,0.888,-24.414,-22.766,5.615
0.407,0.164,0.887,-24.231,-22.461,5.615
0.402,0.162,0.908,-18.860,-20.874,4.272
0.397,0.164,0.915,-7.690,-16.541,2.197
0.391,0.157,0.897,2.747,-12.085,0.183
0.393,0.153,0.894,4.944,-9.460,-0.854
0.396,0.157,0.879,3.540,-7.324,-1.343
0.403,0.168,0.867,0.000,-6.836,-1.465
0.405,0.167,0.873,-4.578,-8.362,-2.075
0.400,0.178,0.902,-8.972,-10.437,-2.686
0.393,0.167,0.940,-11.230,-10.498,-2.991
0.381,0.164,0.955,-5.676,-7.568,-2.686
0.382,0.167,0.923,5.005,-2.014,-2.380
0.396,0.170,0.906,7.690,2.319,-2.502
0.380,0.187,0.892,7.263,2.747,-3.601
0.372,0.163,0.878,13.855,2.930,-5.676
0.372,0.148,0.886,15.808,0.793,-6.042
0.373,0.152,0.884,10.376,-3.479,-4.944
0.381,0.165,0.883,2.075,-7.751,-2.686
0.387,0.163,0.886,-4.395,-11.902,-0.610
0.390,0.151,0.897,-7.080,-14.160,0.366
0.391,0.144,0.912,-7.568,-14.465,0.732
0.385,0.139,0.914,-6.470,-12.817,0.916
0.381,0.151,0.905,-5.310,-10.498,1.160
0.375,0.153,0.902,-5.005,-8.911,1.526
0.367,0.149,0.899,-6.836,-8.606,2.441
0.371,0.155,0.891,-7.996,-8.789,4.333
0.383,0.162,0.891,-5.554,-9.766,5.310
0.386,0.164,0.894,-3.418,-10.620,5.249
0.387,0.161,0.896,-2.319,-11.230,4.211
0.380,0.160,0.900,-1.282,-12.207,2.747
0.373,0.159,0.889,-0.610,-13.062,1.953
0.370,0.167,0.892,-0.610,-13.611,1.709
0.369,0.174,0.895,-0.793,-13.184,0.977
0.365,0.172,0.904,1.648,-12.756,-0.183
0.355,0.162,0.904,5.554,-11.536,-0.916
0.346,0.156,0.904,7.202,-8.911,-1.343
0.340,0.148,0.906,6.958,-5.676,-1.404
0.339,0.141,0.915,6.409,-2.563,-1.038
0.345,0.135,0.921,5.188,-0.305,-0.488
0.359,0.143,0.926,2.625,0.061,0.671
0.369,0.155,0.932,1.831,-0.122,1.282
0.373,0.162,0.922,4.578,-0.549,1.282
0.371,0.160,0.914,10.742,-1.709,0.244
0.362,0.148,0.903,15.686,-2.747,-0.793
0.354,0.137,0.902,16.846,-3.296,-1.404
0.350,0.137,0.903,14.893,-2.747,-1.343
0.349,0.137,0.904,10.376,-1.831,-1.160
0.347,0.134,0.908,7.019,-1.343,-1.160
0.350,0.131,0.918,5.737,-1.099,-1.099
0.349,0.124,0.915,4.150,-1.160,-0.427
0.350,0.113,0.916,0.305,-1.160,1.404
0.354,0.122,0.919,-3.174,-0.916,4.700
0.360,0.141,0.920,-2.869,-0.671,7.751
0.366,0.145,0.919,1.770,-0.610,8.606
0.357,0.140,0.910,6.226,-0.183,7.996
0.352,0.141,0.917,6.958,1.038,7.202
0.356,0.136,0.933,3.845,3.418,6.714
0.362,0.143,0.934,1.221,6.226,6.958
0.365,0.144,0.927,1.831,7.019,6.226
0.367,0.142,0.915,3.967,5.066,4.272
0.364,0.134,0.901,4.333,1.709,2.258
0.355,0.129,0.895,-0.244,-2.014,1.160
0.355,0.124,0.904,-5.127,-3.357,0.977
0.363,0.124,0.915,-5.432,-2.319,1.282
0.365,0.136,0.912,-2.075,-1.770,1.709
0.372,0.138,0.907,2.625,-2.258,2.014
0.365,0.137,0.898,4.517,-3.479,2.014
0.354,0.137,0.888,2.930,-4.761,2.869
0.354,0.134,0.888,1.892,-4.639,3.479
0.361,0.136,0.900,2.563,-3.601,3.052
0.370,0.136,0.905,6.409,-2.319,1.282
0.507,0.154,1.113,11.658,-3.784,-1.099
0.392,0.131,0.963,0.671,-24.658,0.732
0.369,0.123,0.941,-9.766,-41.077,1.648
0.316,0.131,0.910,-11.230,-46.875,3.601
0.297,0.133,0.890,-11.169,-44.678,4.761
0.232,0.276,0.869,-11.536,-37.903,6.775
0.287,0.108,0.856,-10.315,-29.236,14.893
0.281,0.136,0.875,-8.179,-20.020,15.991
0.288,0.145,0.904,-7.080,-14.465,11.047
0.288,0.124,0.915,-7.507,-12.634,6.958
0.275,0.139,0.921,-8.362,-12.634,3.235
0.264,0.126,0.914,-7.568,-10.498,2.136
0.264,0.137,0.902,-3.174,-5.432,0.916
0.274,0.145,0.897,3.357,0.000,-0.977

