accelerometerX,accelerometerY,accelerometerZ,gyroscopeX,gyroscopeY,gyroscopeZ
-0.451,1.083,1.181,46.143,-56.824,-79.651
-0.484,1.144,1.127,36.438,-34.119,-92.651
-0.501,1.248,0.972,17.090,-8.606,-103.943
-0.535,1.367,0.805,-0.793,7.690,-116.699
-0.592,1.426,0.707,-8.362,6.409,-135.010
-0.622,1.408,0.699,-4.028,-8.118,-158.508
-0.652,1.345,0.783,-0.488,-27.283,-182.678
-0.632,1.254,0.879,4.089,-39.490,-205.139
-0.580,1.144,0.923,7.874,-38.513,-226.318
-0.534,1.027,0.909,7.690,-24.170,-243.530
-0.466,0.860,0.819,13.062,-3.601,-255.981
-0.468,0.676,0.696,17.395,17.029,-264.709
-0.478,0.453,0.579,27.283,29.480,-273.437
-0.441,0.220,0.483,50.598,29.175,-276.123
-0.383,0.034,0.397,78.857,19.592,-264.160
-0.353,-0.048,0.323,93.872,6.653,-240.479
-0.347,-0.007,0.312,86.304,-10.559,-215.698
-0.392,0.020,0.471,67.200,-39.429,-205.505
-0.446,-0.036,0.799,57.800,-75.134,-212.341
-0.466,-0.141,1.148,63.110,-103.271,-225.342
-0.470,-0.337,1.386,80.078,-109.863,-239.319
-0.455,-0.626,1.515,96.802,-89.111,-253.052
-0.437,-0.978,1.529,96.924,-53.711,-259.827
-0.407,-1.327,1.392,110.840,-16.357,-255.249
-0.383,-1.572,1.178,118.591,14.160,-234.497
-0.316,-1.684,0.974,119.690,31.677,-199.646
-0.260,-1.738,0.800,119.385,34.363,-162.537
-0.255,-1.814,0.740,100.464,25.818,-137.451
-0.279,-1.954,0.816,62.134,13.367,-125.854
-0.299,-2.132,0.941,30.884,3.113,-117.432
-0.312,-2.265,1.047,10.559,0.427,-98.389
-0.305,-2.298,1.080,-5.920,7.385,-64.270
-0.330,-2.217,1.050,-18.921,20.752,-22.644
-0.315,-2.080,0.949,-23.071,31.189,14.893
-0.283,-1.917,0.791,-19.287,38.208,45.532
-0.214,-1.733,0.640,-24.231,40.955,70.190
-0.206,-1.566,0.556,-33.447,36.926,89.783
-0.216,-1.411,0.549,-40.588,26.062,108.887
-0.255,-1.272,0.613,-36.377,9.827,128.540
-0.272,-1.116,0.729,-26.550,-7.202,148.010
-0.293,-0.955,0.865,-17.029,-19.958,168.823
-0.308,-0.725,0.954,-13.611,-21.362,190.674
-0.322,-0.471,0.960,-15.625,-11.719,207.520
-0.328,-0.270,0.899,-19.226,2.258,213.196
-0.334,-0.169,0.827,-30.334,14.587,205.505
-0.325,-0.165,0.744,-37.231,22.034,191.345
-0.316,-0.108,0.656,-48.523,24.536,185.547
-0.320,0.002,0.594,-56.274,22.461,190.002
-0.331,0.126,0.605,-59.937,11.230,193.481
-0.322,0.254,0.673,-58.777,-5.493,192.871
-0.306,0.418,0.740,-54.749,-19.836,193.604
-0.318,0.596,0.809,-55.847,-26.733,194.275
-0.295,0.706,0.835,-49.683,-29.114,185.730
-0.234,0.784,0.806,-47.546,-24.658,168.945
-0.210,0.895,0.763,-58.105,-16.907,155.334
-0.246,0.975,0.745,-60.974,-13.367,148.315
-0.285,1.031,0.817,-62.012,-21.851,140.747
-0.308,1.072,0.969,-54.626,-37.903,130.859
-0.323,1.128,1.128,-37.903,-50.720,124.023
-0.335,1.209,1.265,-21.118,-50.537,117.310
-0.289,1.256,1.313,-10.437,-36.499,104.553
-0.233,1.190,1.243,-5.249,-14.282,85.022
-0.232,1.062,1.169,-9.216,10.254,66.956
-0.216,0.992,0.937,-17.090,35.828,54.382
-0.219,0.940,0.812,-45.471,40.405,48.950
-0.304,0.922,0.852,-36.682,30.212,46.570
-0.188,0.812,0.871,-7.507,16.724,47.119
-0.217,0.959,0.814,-4.395,20.203,44.434
-0.219,1.013,0.785,-37.537,13.550,31.128
-0.253,0.892,0.813,-26.306,2.686,7.385
-0.235,0.726,0.942,-16.663,-8.240,-12.390
-0.214,0.529,0.995,4.333,-12.085,-24.841
-0.170,0.375,1.060,1.648,-12.329,-26.245
-0.156,0.288,1.073,10.437,-8.484,-14.282
-0.135,0.296,1.108,29.297,-3.601,2.014
-0.117,0.420,1.027,45.471,6.592,15.076
-0.120,0.530,0.917,35.217,11.414,13.611
-0.129,0.468,0.914,26.672,3.174,-2.930
-0.116,0.286,1.001,33.813,-5.737,-20.020
-0.132,0.146,1.074,29.724,-5.371,-28.137
-0.133,0.075,1.085,18.677,-0.305,-28.687
-0.128,0.044,1.077,16.052,4.089,-24.719
-0.126,0.034,1.064,17.090,7.141,-19.775
-0.111,0.031,1.038,16.785,8.728,-16.602
-0.096,0.034,1.009,17.273,8.179,-14.771
-0.076,0.039,1.000,19.348,4.883,-13.367
-0.055,0.023,1.007,23.376,0.610,-13.489
-0.024,-0.008,1.026,26.428,-2.258,-13.489
-0.018,-0.041,1.034,28.992,-2.075,-12.024
-0.018,-0.056,1.033,23.499,1.526,-9.521
-0.011,-0.071,1.008,17.090,6.226,-7.507
0.000,-0.080,0.973,10.437,10.803,-5.737
-0.003,-0.084,0.943,7.019,12.695,-3.723
-0.004,-0.074,0.933,5.005,10.925,-1.648
-0.004,-0.043,0.949,5.920,5.005,2.258
0.000,-0.007,0.987,12.817,-1.038,6.287
-0.000,0.018,1.022,16.418,-4.089,8.362
0.004,0.038,1.037,14.526,-2.502,8.057
0.013,0.038,1.031,10.254,1.770,5.249
0.012,0.012,1.010,5.981,5.859,2.502

-0.315,1.331,1.085,55.847,-22.217,-49.683
-0.337,1.410,1.150,58.289,-21.667,-64.819
-0.394,1.358,1.206,54.382,-13.794,-91.980
-0.439,1.193,1.225,46.326,0.122,-124.817
-0.446,0.943,1.183,47.913,15.808,-153.259
-0.465,0.689,1.088,52.612,30.151,-170.227
-0.456,0.498,0.966,56.458,40.771,-175.781
-0.429,0.355,0.861,66.223,41.687,-176.025
-0.412,0.232,0.814,79.529,31.494,-174.744
-0.395,0.133,0.849,83.984,15.625,-174.133
-0.401,0.043,0.941,84.595,1.892,-176.270
-0.411,-0.036,1.041,79.285,-2.991,-180.847
-0.432,-0.152,1.098,69.214,2.686,-190.552
-0.430,-0.291,1.127,55.542,15.930,-202.820
-0.412,-0.470,1.115,43.762,31.677,-213.562
-0.368,-0.651,1.053,43.152,46.631,-219.727
-0.320,-0.827,0.954,46.692,59.814,-219.055
-0.282,-1.000,0.821,56.885,69.580,-213.379
-0.209,-1.165,0.659,63.171,72.876,-203.186
-0.155,-1.280,0.539,63.721,67.383,-186.890
-0.118,-1.336,0.472,69.397,54.626,-163.940
-0.129,-1.354,0.492,71.533,34.668,-138.977
-0.120,-1.373,0.567,75.256,15.930,-121.033
-0.118,-1.465,0.649,76.538,5.920,-113.403
-0.142,-1.623,0.713,61.096,8.301,-112.000
-0.150,-1.769,0.685,30.579,24.170,-110.596
-0.179,-1.911,0.622,4.822,40.344,-107.117
-0.114,-2.086,0.562,-7.446,50.659,-95.703
-0.147,-2.102,0.453,-32.776,56.030,-66.101
-0.163,-2.061,0.418,-56.519,46.692,-25.879
-0.134,-1.895,0.392,-33.203,28.076,15.808
-0.119,-1.651,0.401,-14.832,6.897,50.659
-0.108,-1.422,0.432,-12.817,-13.611,73.303
-0.104,-1.264,0.521,-17.517,-30.212,82.520
-0.104,-1.200,0.650,-20.264,-41.870,85.571
-0.111,-1.132,0.771,-21.729,-46.509,91.858
-0.124,-1.036,0.858,-23.254,-44.312,102.661
-0.143,-0.918,0.913,-25.635,-37.964,114.014
-0.160,-0.783,0.937,-29.907,-31.250,124.390
-0.200,-0.660,0.960,-35.461,-28.198,132.019
-0.227,-0.589,1.001,-38.086,-28.748,133.789
-0.230,-0.555,1.047,-37.292,-30.212,133.057
-0.259,-0.534,1.097,-36.621,-29.114,135.132
-0.299,-0.541,1.153,-40.588,-24.231,138.977
-0.324,-0.572,1.178,-47.058,-13.672,142.700
-0.346,-0.549,1.144,-57.190,3.662,151.489
-0.352,-0.418,1.033,-67.383,22.400,165.466
-0.355,-0.209,0.897,-78.247,35.583,179.138
-0.350,-0.046,0.801,-88.379,39.246,183.472
-0.335,0.061,0.760,-93.628,32.959,177.917
-0.313,0.154,0.760,-92.468,20.630,171.570
-0.299,0.255,0.786,-88.379,9.033,169.128
-0.307,0.374,0.830,-85.876,0.549,168.335
-0.307,0.523,0.857,-79.834,-5.981,168.152
-0.287,0.640,0.908,-69.519,-13.367,164.062
-0.281,0.728,0.996,-58.167,-23.132,156.067
-0.261,0.812,1.074,-42.419,-28.748,149.658
-0.232,0.898,1.137,-25.452,-28.015,142.944
-0.188,0.970,1.150,-17.212,-19.592,133.972
-0.150,1.040,1.105,-17.822,-4.211,123.291
-0.134,1.106,1.029,-24.170,12.390,110.413
-0.113,1.140,0.946,-27.771,23.560,93.872
-0.094,1.117,0.882,-29.053,26.428,73.181
-0.074,1.030,0.854,-26.855,22.583,50.476
-0.049,0.898,0.855,-20.020,16.357,30.823
-0.039,0.756,0.847,-12.085,10.925,18.738
-0.035,0.674,0.789,-11.658,8.301,13.672
-0.049,0.653,0.852,-4.700,4.028,10.193
-0.037,0.573,0.814,19.836,5.127,3.296
-0.065,0.558,0.790,-5.554,4.883,-0.122
-0.072,0.496,0.796,-8.545,-4.333,-5.127
-0.064,0.408,0.918,1.282,-20.142,-10.803
-0.045,0.296,1.044,18.982,-30.518,-15.259
-0.030,0.227,1.117,14.954,-29.602,-16.174
-0.026,0.202,1.127,8.301,-21.057,-15.869
-0.033,0.163,1.107,9.583,-12.451,-17.151
-0.042,0.101,1.098,7.690,-7.324,-20.325
-0.050,0.024,1.102,4.211,-4.333,-21.362
-0.074,-0.025,1.108,3.601,-2.258,-20.203
-0.080,-0.053,1.111,2.869,-1.221,-18.188
-0.077,-0.073,1.103,3.845,-0.977,-15.747
-0.060,-0.083,1.099,3.845,-0.610,-13.245
-0.039,-0.103,1.085,4.700,0.977,-11.536
-0.015,-0.102,1.057,3.113,4.089,-8.789
0.003,-0.086,1.020,1.282,6.592,-5.249
0.016,-0.054,0.986,-0.671,7.568,-2.014
0.021,-0.018,0.954,-1.038,6.958,-0.244
0.029,-0.006,0.946,0.732,4.150,-0.427
0.037,-0.029,0.954,3.662,1.221,-1.587
0.042,-0.031,0.964,4.333,1.038,-1.343
0.043,-0.025,0.966,6.348,1.465,0.305
0.050,0.003,0.959,6.226,0.977,2.136
0.055,0.021,0.960,6.897,-0.793,2.686
0.062,0.026,0.966,7.874,-1.953,2.075
0.064,0.043,0.961,6.409,-1.892,1.404
0.058,0.048,0.967,3.723,-2.441,0.671
0.047,0.022,0.987,4.456,-3.906,-0.732
0.042,0.005,1.001,5.493,-4.883,-1.221
0.037,-0.002,1.010,5.310,-4.517,-0.793
0.030,-0.002,1.018,4.578,-2.991,-0.122

-0.267,1.247,1.307,31.128,-20.813,-41.443
-0.271,1.334,1.292,39.490,-9.094,-56.213
-0.274,1.350,1.225,44.556,5.676,-76.355
-0.306,1.318,1.105,46.326,19.592,-98.206
-0.320,1.204,1.022,51.025,25.391,-119.324
-0.344,1.042,0.952,65.369,27.161,-136.780
-0.352,0.906,0.896,70.374,27.649,-148.132
-0.340,0.784,0.825,74.463,28.442,-156.494
-0.340,0.678,0.806,69.824,26.855,-164.307
-0.348,0.529,0.821,67.566,21.729,-173.645
-0.365,0.390,0.856,66.895,16.296,-182.251
-0.378,0.264,0.896,66.650,11.230,-187.622
-0.401,0.137,0.956,69.397,7.141,-193.054
-0.415,-0.010,1.025,73.486,4.333,-198.792
-0.427,-0.168,1.072,79.590,5.859,-203.064
-0.392,-0.291,1.065,83.374,14.771,-204.590
-0.384,-0.390,1.019,81.848,28.198,-203.064
-0.383,-0.472,0.958,72.205,40.649,-201.965
-0.389,-0.607,0.900,66.895,48.340,-205.444
-0.402,-0.822,0.858,63.904,51.941,-214.050
-0.379,-1.111,0.814,60.974,54.199,-223.206
-0.345,-1.418,0.724,59.204,60.181,-224.670
-0.295,-1.668,0.592,53.467,71.472,-213.684
-0.254,-1.848,0.441,43.396,80.933,-193.237
-0.215,-1.948,0.300,34.485,81.604,-166.199
-0.213,-1.958,0.207,24.353,68.848,-136.230
-0.150,-1.836,0.114,16.479,47.424,-107.605
-0.234,-1.829,0.241,5.005,14.954,-90.454
-0.235,-1.969,0.486,4.211,-17.517,-79.712
-0.241,-2.048,0.599,-12.634,-27.893,-57.617
-0.307,-2.000,0.757,-39.307,-32.104,-27.222
-0.313,-1.944,0.841,-16.907,-37.170,1.709
-0.304,-1.776,0.905,-10.620,-33.875,28.931
-0.284,-1.642,0.873,-12.390,-21.362,46.875
-0.269,-1.549,0.799,-25.635,-5.676,54.688
-0.257,-1.500,0.697,-33.142,5.554,59.998
-0.248,-1.440,0.635,-37.415,7.629,68.298
-0.244,-1.369,0.647,-35.034,-1.404,80.200
-0.229,-1.233,0.725,-33.630,-13.489,96.741
-0.218,-1.073,0.811,-33.142,-22.644,113.831
-0.232,-0.931,0.888,-33.508,-27.527,126.465
-0.246,-0.840,0.952,-32.776,-27.588,134.460
-0.288,-0.788,1.018,-30.273,-24.231,140.686
-0.271,-0.719,1.018,-30.518,-15.259,147.583
-0.297,-0.601,0.954,-40.710,-1.587,155.823
-0.323,-0.490,0.882,-56.885,10.376,160.339
-0.346,-0.440,0.848,-68.298,14.099,157.959
-0.353,-0.435,0.837,-67.566,8.850,154.907
-0.345,-0.377,0.844,-65.247,1.465,160.095
-0.348,-0.258,0.880,-62.317,-5.981,170.715
-0.344,-0.141,0.947,-58.289,-14.038,179.749
-0.321,-0.030,1.010,-57.129,-17.273,184.387
-0.304,0.089,1.055,-59.509,-14.465,186.890
-0.312,0.207,1.089,-59.448,-9.399,188.416
-0.309,0.308,1.087,-54.993,-3.784,186.768
-0.280,0.431,1.042,-53.284,3.418,182.678
-0.244,0.577,0.969,-55.725,12.695,178.467
-0.228,0.667,0.910,-56.335,18.433,169.678
-0.193,0.675,0.872,-58.838,19.104,153.259
-0.150,0.672,0.839,-62.500,18.921,137.085
-0.130,0.713,0.822,-61.401,17.334,130.798
-0.130,0.787,0.847,-54.260,10.071,130.371
-0.116,0.864,0.906,-41.321,-1.160,128.357
-0.100,0.926,0.975,-24.231,-11.536,123.718
-0.079,0.967,1.037,-11.597,-15.869,114.624
-0.049,0.979,1.070,-8.240,-11.597,100.098
-0.031,0.973,1.052,-8.667,-1.709,83.618
-0.023,0.960,0.987,-11.902,9.521,67.932
-0.021,0.938,0.911,-18.433,16.541,52.856
-0.045,0.959,0.925,-21.606,13.367,39.368
-0.031,0.871,0.953,3.418,4.150,24.658
-0.023,0.819,0.991,2.991,-2.502,11.292
-0.007,0.660,1.119,0.793,-8.911,-0.244
0.006,0.593,1.076,13.855,-1.770,-6.653
0.000,0.545,0.997,-1.709,6.531,-9.766
0.005,0.458,0.919,3.906,8.850,-17.212
0.017,0.343,0.896,6.226,5.188,-24.475
0.017,0.210,0.898,13.550,-0.916,-28.137
0.009,0.127,0.915,15.198,-4.150,-26.550
-0.004,0.077,0.943,14.343,-5.432,-23.010
-0.008,0.015,0.977,15.625,-6.714,-21.606
-0.012,-0.080,1.039,14.038,-7.874,-20.630
0.012,-0.139,1.040,13.428,-4.028,-14.404
0.006,-0.013,1.013,8.911,2.808,-5.188
0.031,0.010,0.956,17.456,5.432,-6.775
0.033,-0.037,0.941,6.226,5.310,-14.404
0.026,-0.143,0.954,-1.831,2.625,-19.348
0.028,-0.203,0.969,-0.610,-0.793,-17.151
0.034,-0.205,0.987,2.197,-4.578,-10.254
0.047,-0.169,1.000,4.333,-7.568,-2.563
0.056,-0.113,1.008,6.104,-8.667,1.770
0.060,-0.086,1.021,8.423,-8.728,2.197
0.068,-0.089,1.033,6.714,-7.446,0.671
0.074,-0.088,1.040,3.784,-4.822,0.793
0.076,-0.071,1.031,1.953,-1.770,2.502
0.078,-0.048,1.010,0.916,1.709,3.723
0.078,-0.028,0.984,-0.977,4.089,4.211
0.086,-0.014,0.967,-1.160,4.028,4.883
0.088,-0.002,0.968,1.282,2.075,5.798
0.090,0.013,0.974,3.479,0.122,6.348

-0.161,1.443,1.019,-69.458,-22.522,122.070
-0.046,0.885,1.198,-57.556,-41.138,47.791
-0.027,0.442,1.389,-41.138,-30.029,22.278
-0.001,0.451,1.268,-26.550,7.385,54.138
-0.010,0.880,1.000,-32.349,39.124,99.365
0.006,1.269,0.777,-24.475,46.204,111.938
0.036,1.410,0.720,-19.226,27.222,86.182
0.048,1.243,0.812,-11.597,-1.221,43.030
0.043,0.977,0.966,-9.705,-20.142,8.423
0.032,0.790,1.060,-9.827,-25.696,-6.958
0.032,0.692,1.109,-2.808,-22.400,-9.949
0.031,0.659,1.063,5.676,-13.306,-10.193
0.028,0.604,1.036,5.554,-7.202,-13.428
0.026,0.513,1.012,15.503,-2.075,-17.639
0.019,0.420,1.003,19.531,2.808,-20.081
0.035,0.323,0.979,22.766,6.042,-20.081
0.028,0.236,0.939,24.597,6.409,-18.494
0.006,0.249,1.038,22.766,3.357,-16.541
0.062,0.114,1.028,50.537,7.080,-16.846
0.038,0.150,0.921,26.917,21.301,-16.174
-0.006,0.105,0.790,-0.916,18.127,-20.691
-0.014,-0.025,0.809,1.099,-0.122,-29.846
-0.023,-0.178,0.950,1.892,-21.362,-31.189
-0.009,-0.242,1.063,2.747,-30.212,-21.240
-0.021,-0.146,1.131,-0.244,-26.489,-4.578
0.004,-0.019,1.132,3.113,-18.555,4.944
0.030,0.072,1.106,-1.587,-8.911,5.127
0.054,0.070,1.073,-3.479,-1.160,-2.319
0.071,-0.010,1.045,-2.258,5.554,-10.864
0.090,-0.092,1.011,-0.977,11.902,-13.977
0.104,-0.096,0.949,0.366,17.212,-8.423
0.107,-0.026,0.868,1.953,18.433,0.000
0.115,0.028,0.834,3.296,13.550,4.089
0.125,0.041,0.832,3.357,6.226,3.174
0.112,0.026,0.865,-0.916,-0.793,0.977
0.098,-0.005,0.929,-3.357,-7.996,0.000
0.095,-0.010,1.002,-2.197,-13.550,1.770
0.092,0.017,1.054,-0.061,-14.954,5.554
0.087,0.058,1.073,2.014,-10.986,7.751
0.091,0.081,1.063,2.930,-3.906,6.714
0.096,0.074,1.035,2.625,2.441,3.296
0.093,0.051,1.002,2.380,6.531,0.549
0.094,0.043,0.974,2.991,7.874,0.427
0.096,0.057,0.953,3.906,6.348,2.075
0.093,0.076,0.949,3.662,3.296,3.113
0.087,0.078,0.956,2.808,0.061,2.136
0.090,0.062,0.976,2.258,-2.441,0.183
0.085,0.026,1.000,2.563,-3.418,-0.977
0.075,-0.002,1.012,2.075,-2.441,-0.732
0.070,-0.011,1.006,1.160,-0.183,0.488
0.073,0.005,0.994,0.977,2.075,2.869
0.069,0.040,0.977,0.305,3.113,5.310
0.064,0.060,0.976,0.183,2.441,5.493
0.065,0.057,0.988,1.221,0.488,3.723
0.069,0.050,1.001,2.502,-0.916,2.380
0.072,0.060,1.011,3.357,-1.526,2.625
0.077,0.071,1.017,3.723,-1.587,3.296
0.083,0.073,1.014,3.784,-0.183,2.930
0.091,0.078,0.999,2.502,2.563,2.197
0.087,0.078,0.971,1.221,4.883,1.709
0.083,0.078,0.957,2.136,4.944,1.038
0.082,0.051,0.966,4.944,2.258,0.671
0.077,0.035,0.983,5.371,-0.671,0.488
0.073,0.041,0.982,5.676,-0.549,2.075
0.072,0.058,0.977,3.540,0.244,3.479
0.065,0.061,0.983,2.686,0.610,3.296
0.063,0.047,0.986,2.441,0.854,1.953
0.065,0.032,0.984,0.854,1.160,0.916
0.070,0.028,0.978,1.160,1.709,0.977
0.070,0.036,0.970,1.892,1.648,1.892
0.068,0.049,0.974,1.404,0.671,2.808
0.071,0.062,0.984,1.587,-0.427,2.930
0.079,0.071,0.985,1.709,-0.366,2.686
0.080,0.076,0.983,1.343,0.305,1.953
0.082,0.074,0.971,0.610,1.221,0.916
0.076,0.066,0.960,-0.671,1.892,-0.183
0.076,0.050,0.954,-0.732,1.343,-0.916
0.072,0.033,0.957,0.000,0.061,-1.160
0.068,0.019,0.967,0.488,-1.465,-0.549
0.062,0.032,0.977,2.075,-2.625,1.221
0.068,0.062,0.979,3.479,-3.052,3.113
0.069,0.090,0.984,2.197,-2.869,3.296
0.066,0.078,0.984,1.160,-1.892,0.488
0.066,0.044,0.989,-1.160,-0.549,-2.502
0.071,0.015,0.989,-0.610,0.427,-3.113
0.078,0.018,0.971,0.977,1.282,-1.282
0.081,0.048,0.947,2.197,1.770,0.793
0.078,0.064,0.941,3.052,0.488,0.977
0.071,0.044,0.957,3.784,-1.831,-0.305
0.060,0.015,0.983,3.174,-3.601,-1.343
0.059,0.002,0.997,4.333,-4.456,-0.793
0.061,0.026,0.999,4.456,-3.906,1.099
0.060,0.048,0.998,3.601,-3.479,2.075
0.061,0.055,1.005,2.869,-3.296,1.038
0.064,0.034,1.016,1.404,-2.686,-0.366
0.067,0.023,1.018,-0.122,-0.916,-0.793
0.067,0.034,0.993,0.122,1.526,0.000
0.064,0.051,0.972,-0.183,2.808,0.671
0.059,0.043,0.957,0.000,2.319,0.000
0.059,0.040,0.953,0.305,0.916,-0.488

-0.305,1.315,1.382,32.349,-33.630,-30.273
-0.317,1.446,1.410,37.537,-23.560,-46.631
-0.323,1.513,1.384,41.992,-7.568,-68.420
-0.324,1.498,1.306,42.542,9.583,-96.741
-0.313,1.404,1.190,40.710,25.818,-124.268
-0.285,1.265,1.049,40.588,38.147,-147.278
-0.272,1.137,0.905,42.725,46.997,-161.987
-0.293,1.090,0.763,39.673,48.950,-169.861
-0.314,0.992,0.713,43.457,36.987,-179.321
-0.309,0.859,0.740,56.335,22.522,-192.627
-0.325,0.678,0.799,68.726,11.719,-205.139
-0.362,0.440,0.874,76.599,6.531,-216.736
-0.427,0.190,0.924,77.820,8.606,-225.342
-0.485,-0.001,0.933,78.186,15.625,-226.990
-0.573,-0.175,0.934,77.026,21.729,-225.952
-0.631,-0.381,0.945,72.510,24.292,-229.431
-0.627,-0.609,0.956,69.214,25.635,-235.413
-0.581,-0.812,0.951,68.359,29.175,-236.572
-0.510,-0.964,0.898,66.467,38.269,-231.140
-0.468,-1.081,0.821,55.176,51.270,-224.426
-0.402,-1.196,0.730,41.016,62.317,-219.421
-0.349,-1.349,0.636,33.569,68.420,-214.905
-0.293,-1.541,0.534,26.367,70.313,-210.144
-0.298,-1.654,0.396,19.226,68.726,-203.491
-0.275,-1.998,0.350,19.775,54.382,-197.754
-0.286,-2.263,0.391,5.798,38.269,-177.002
-0.243,-2.387,0.351,-4.639,30.396,-138.550
-0.266,-2.342,0.414,-18.066,14.709,-92.285
-0.246,-2.180,0.483,1.160,-4.883,-49.866
-0.225,-2.013,0.601,6.287,-21.423,-21.790
-0.199,-1.945,0.736,3.540,-30.762,-9.521
-0.192,-1.964,0.819,-2.380,-25.452,-2.502
-0.218,-1.988,0.828,-16.113,-8.484,7.141
-0.243,-2.009,0.769,-26.245,7.751,22.217
-0.245,-1.988,0.684,-32.349,18.250,43.213
-0.231,-1.906,0.598,-35.339,20.935,70.435
-0.214,-1.689,0.606,-32.776,15.808,100.586
-0.171,-1.442,0.471,-31.128,9.949,124.939
-0.203,-1.177,0.459,-61.951,-7.874,142.700
-0.183,-1.029,0.531,-41.687,-33.386,149.414
-0.151,-0.937,0.692,-32.532,-50.598,149.658
-0.161,-0.891,0.867,-37.048,-54.688,149.780
-0.164,-0.844,0.957,-36.072,-40.955,154.175
-0.209,-0.713,0.974,-48.523,-20.935,165.405
-0.263,-0.546,0.960,-56.763,-9.583,178.772
-0.326,-0.411,0.996,-53.284,-10.498,188.049
-0.353,-0.343,1.088,-41.931,-19.165,191.284
-0.364,-0.300,1.172,-28.320,-26.184,193.848
-0.369,-0.200,1.214,-23.071,-20.691,199.585
-0.328,-0.028,1.182,-26.733,-6.409,204.956
-0.315,0.174,1.105,-32.532,8.179,209.656
-0.324,0.336,1.028,-36.255,18.738,208.862
-0.333,0.428,1.000,-45.593,21.912,197.083
-0.340,0.469,0.983,-51.697,20.020,180.908
-0.342,0.497,0.994,-52.124,16.479,167.542
-0.320,0.481,1.011,-45.227,13.245,156.372
-0.295,0.487,1.007,-42.725,11.658,150.940
-0.284,0.536,0.981,-38.391,9.888,152.283
-0.281,0.607,0.940,-30.701,8.057,153.503
-0.130,0.634,0.869,-23.193,8.179,150.879
-0.235,0.716,0.971,-28.564,8.362,147.949
-0.023,0.820,0.915,-22.278,14.709,148.071
-0.074,1.132,0.776,-46.814,28.320,154.175
-0.064,1.445,0.704,-70.679,26.672,144.470
-0.114,1.527,0.724,-55.237,2.747,108.032
-0.022,1.376,0.892,-25.513,-27.405,60.547
-0.037,1.123,1.052,-4.517,-44.312,22.339
-0.020,0.917,1.204,-11.841,-46.875,3.906
-0.056,0.811,1.265,-3.906,-35.522,1.343
-0.004,0.763,1.211,4.944,-18.188,5.493
-0.005,0.800,1.077,11.536,0.488,6.592
0.008,0.705,0.948,23.315,8.606,-3.174
0.032,0.572,0.871,27.649,12.085,-14.832
0.093,0.390,0.844,32.532,12.451,-21.729
0.098,0.267,0.770,35.950,13.611,-21.362
0.046,0.251,0.877,17.090,10.010,-17.822
0.074,0.184,0.933,37.170,7.874,-14.221
0.052,0.291,0.866,22.888,17.883,-9.705
0.046,0.290,0.767,-5.005,15.564,-15.991
0.050,0.176,0.735,-6.592,-0.122,-27.649
0.047,0.013,0.869,-2.014,-22.217,-34.241
0.047,-0.106,1.013,9.827,-35.400,-31.128
0.023,-0.094,1.058,7.446,-34.729,-21.057
0.010,-0.064,1.086,-0.488,-33.386,-13.916
0.013,-0.092,1.130,5.920,-33.997,-13.000
0.020,-0.130,1.179,9.827,-31.799,-14.404
0.024,-0.182,1.202,7.202,-25.146,-15.747
0.028,-0.233,1.224,1.282,-15.320,-13.977
0.075,-0.250,1.208,-1.831,-4.028,-6.775
0.035,-0.095,1.202,-1.221,5.310,2.808
0.067,-0.052,1.070,20.752,12.634,0.732
0.102,-0.157,1.040,2.930,14.465,-9.338
0.102,-0.195,0.999,-7.568,13.123,-8.362
0.110,-0.215,1.006,14.099,6.653,-0.366
0.140,-0.111,0.989,22.949,6.531,8.301
0.132,-0.037,0.956,6.958,6.470,11.536
0.123,-0.027,0.949,5.310,4.150,7.324
0.116,-0.083,0.975,0.977,1.648,1.160
0.104,-0.131,1.001,-4.150,0.305,-0.549
0.104,-0.151,1.014,-0.916,0.244,1.953

-0.200,1.265,1.302,34.912,-22.644,-34.912
-0.225,1.326,1.363,40.344,-20.081,-51.880
-0.249,1.342,1.388,50.537,-12.451,-70.801
-0.257,1.313,1.367,55.359,1.038,-90.881
-0.272,1.238,1.301,56.396,16.235,-110.413
-0.273,1.160,1.195,57.190,29.785,-126.343
-0.278,1.091,1.079,62.500,38.452,-137.329
-0.300,1.031,1.001,67.505,40.283,-146.179
-0.316,0.993,0.934,72.815,38.086,-156.128
-0.339,0.903,0.912,77.026,31.982,-169.678
-0.350,0.674,0.916,78.674,26.245,-187.500
-0.362,0.493,0.947,71.350,23.132,-200.073
-0.375,0.376,0.959,71.045,23.560,-205.750
-0.433,0.301,0.967,67.566,27.222,-209.290
-0.525,0.177,0.976,57.800,34.363,-219.299
-0.598,-0.039,0.982,46.936,42.358,-237.976
-0.648,-0.327,0.985,37.109,50.293,-257.751
-0.636,-0.615,0.964,28.992,61.340,-272.339
-0.612,-0.910,0.868,26.062,76.965,-279.358
-0.592,-1.209,0.751,19.836,90.698,-280.396
-0.552,-1.495,0.622,18.433,99.304,-273.193
-0.504,-1.751,0.463,22.095,105.103,-256.287
-0.505,-1.946,0.315,24.658,105.347,-232.056
-0.487,-2.085,0.202,27.283,94.177,-203.064
-0.478,-2.166,0.157,30.334,69.092,-171.753
-0.441,-2.189,0.149,30.273,37.415,-140.198
-0.452,-2.235,0.332,22.766,4.272,-113.037
-0.426,-2.247,0.568,24.475,-24.719,-88.806
-0.407,-2.227,0.712,17.151,-34.424,-63.599
-0.360,-2.169,0.849,-6.165,-31.860,-39.551
-0.313,-2.101,0.830,-2.563,-16.235,-18.188
-0.294,-2.011,0.740,-15.930,-1.892,-0.427
-0.262,-1.952,0.695,-20.752,1.770,14.038
-0.213,-1.949,0.668,-1.770,2.991,28.076
-0.218,-1.865,0.651,-8.728,4.639,49.011
-0.216,-1.720,0.629,-12.573,3.662,71.838
-0.201,-1.547,0.625,-10.498,-1.404,92.712
-0.193,-1.371,0.661,-16.846,-6.165,109.131
-0.199,-1.201,0.747,-25.146,-8.240,120.728
-0.173,-1.144,0.672,-24.414,-3.235,127.930
-0.205,-0.996,0.592,-67.017,2.563,131.958
-0.262,-0.984,0.592,-78.430,-8.484,132.568
-0.251,-0.997,0.668,-48.340,-22.522,133.728
-0.283,-0.998,0.809,-43.823,-29.846,141.724
-0.276,-0.951,0.875,-38.513,-23.987,154.602
-0.266,-0.734,0.849,-43.884,-7.141,176.025
-0.267,-0.437,0.766,-54.077,4.333,196.228
-0.258,-0.192,0.748,-58.472,2.563,204.468
-0.265,-0.031,0.828,-49.988,-14.160,202.087
-0.276,0.031,1.011,-32.349,-34.302,193.848
-0.286,0.021,1.162,-18.250,-46.265,185.669
-0.309,0.067,1.251,-16.479,-38.879,180.847
-0.313,0.117,1.223,-20.691,-18.005,176.636
-0.261,0.015,1.144,-17.761,3.723,170.166
-0.203,0.144,0.975,-35.461,29.602,174.255
-0.226,0.388,0.786,-57.678,37.048,190.247
-0.212,0.700,0.737,-54.749,23.376,200.317
-0.194,0.883,0.831,-40.466,-9.216,188.477
-0.159,0.891,0.999,-34.668,-40.649,162.964
-0.135,0.815,1.238,-28.687,-56.396,138.489
-0.062,0.724,1.334,-20.691,-44.006,123.657
-0.031,0.819,1.328,-41.138,-12.024,122.925
-0.056,1.007,1.161,-42.908,13.000,124.146
0.010,0.968,1.146,-39.978,22.522,116.028
0.046,1.090,1.012,-32.410,33.936,107.666
0.057,1.183,0.865,-36.133,37.170,90.271
0.098,1.188,0.782,-29.480,28.015,60.852
0.105,0.988,0.776,-8.972,10.498,27.710
0.095,0.708,0.851,-4.028,-5.676,4.639
0.081,0.515,0.908,-3.235,-13.123,0.427
0.059,0.450,0.939,3.235,-14.893,7.568
0.041,0.542,0.899,10.071,-14.587,16.357
0.038,0.567,0.920,13.855,-21.301,15.747
0.049,0.514,0.995,19.653,-27.710,7.568
0.056,0.417,1.100,19.836,-27.893,-0.366
0.073,0.308,1.168,24.963,-18.494,-4.211
0.076,0.258,1.172,23.193,-2.563,-2.563
0.090,0.288,1.073,19.409,11.108,-0.305
0.106,0.188,1.113,23.743,17.700,-3.479
0.130,0.146,0.961,33.752,31.189,-8.545
0.091,0.127,0.779,-1.221,33.691,-11.414
0.073,0.038,0.696,-3.540,16.907,-17.456
0.058,-0.093,0.785,3.418,-11.169,-20.386
0.062,-0.206,0.986,13.733,-35.767,-17.029
0.056,-0.176,1.092,17.090,-41.016,-6.836
0.052,-0.105,1.146,6.775,-35.889,0.244
0.068,-0.067,1.143,6.470,-24.536,0.366
0.081,-0.082,1.111,2.380,-11.108,-4.150
0.098,-0.141,1.060,-4.517,0.854,-9.338
0.109,-0.201,1.013,-8.057,8.972,-10.132
0.122,-0.200,0.961,-6.226,13.550,-5.493
0.124,-0.174,0.916,-3.723,13.672,0.427
0.118,-0.178,0.909,-3.601,8.728,4.395
0.137,-0.162,0.934,-4.517,1.526,9.216
0.112,-0.040,1.006,6.165,-5.066,13.794
0.138,-0.007,1.055,20.752,-7.141,9.644
0.113,-0.049,1.067,2.136,-6.104,2.869
0.112,-0.092,1.072,-7.690,-3.967,-0.427
0.113,-0.091,1.072,-1.160,-1.831,1.953
0.125,-0.055,1.041,4.333,1.709,5.188

-0.155,1.235,1.351,24.414,-19.165,-33.569
-0.187,1.224,1.410,32.471,-17.578,-55.054
-0.207,1.156,1.425,37.903,-8.728,-77.087
-0.219,1.094,1.347,42.664,6.226,-93.079
-0.218,1.061,1.213,45.471,21.790,-104.065
-0.224,1.022,1.079,48.706,30.762,-113.647
-0.226,1.000,0.984,51.758,31.799,-122.437
-0.219,0.962,0.939,57.068,26.855,-131.653
-0.228,0.888,0.959,59.631,20.142,-143.311
-0.219,0.779,0.998,59.875,16.785,-156.311
-0.229,0.674,1.023,60.669,20.691,-167.969
-0.222,0.547,0.924,56.458,31.189,-178.040
-0.255,0.421,0.856,44.006,37.598,-188.049
-0.257,0.262,0.782,53.955,40.222,-197.693
-0.283,0.112,0.732,55.542,41.321,-202.209
-0.320,-0.035,0.728,54.321,36.499,-203.552
-0.368,-0.168,0.777,57.678,27.161,-203.674
-0.408,-0.328,0.868,69.031,17.639,-206.360
-0.430,-0.537,0.947,77.026,14.465,-212.158
-0.444,-0.792,0.979,78.735,20.996,-218.750
-0.455,-1.055,0.951,75.928,35.767,-222.290
-0.450,-1.321,0.865,70.129,53.772,-220.398
-0.451,-1.567,0.714,63.782,71.472,-213.074
-0.449,-1.772,0.517,50.659,85.754,-199.768
-0.403,-1.922,0.326,32.532,92.712,-181.335
-0.415,-1.903,0.158,19.287,87.097,-160.889
-0.372,-2.073,0.182,13.977,58.472,-143.494
-0.349,-2.090,0.340,7.812,26.306,-116.211
-0.294,-2.057,0.463,3.357,5.188,-86.609
-0.308,-1.969,0.614,-8.606,-5.859,-60.425
-0.268,-1.902,0.656,-0.610,-5.127,-43.457
-0.250,-1.831,0.604,-8.301,4.944,-30.762
-0.243,-1.838,0.570,-9.705,10.803,-22.766
-0.216,-1.882,0.518,0.549,13.611,-13.489
-0.200,-1.832,0.473,-5.371,11.719,5.859
-0.182,-1.696,0.455,-4.761,5.615,28.015
-0.168,-1.558,0.482,-7.935,-0.854,45.471
-0.162,-1.482,0.555,-20.813,-4.883,56.213
-0.148,-1.434,0.629,-32.532,-6.226,65.796
-0.153,-1.335,0.708,-41.809,-4.517,78.979
-0.121,-1.237,0.591,-41.931,0.305,93.079
-0.151,-1.082,0.548,-67.871,-4.333,105.652
-0.161,-1.024,0.592,-50.354,-21.973,112.854
-0.140,-0.938,0.702,-32.288,-35.034,119.385
-0.148,-0.817,0.805,-31.128,-38.513,126.526
-0.164,-0.745,0.861,-29.724,-29.907,130.005
-0.183,-0.721,0.866,-40.710,-17.029,128.601
-0.178,-0.715,0.844,-49.011,-9.338,128.662
-0.184,-0.640,0.858,-46.631,-9.277,137.024
-0.175,-0.486,0.899,-36.865,-14.771,150.757
-0.161,-0.293,0.957,-26.245,-21.973,162.659
-0.159,-0.131,1.013,-19.226,-26.306,167.236
-0.156,-0.074,1.049,-17.639,-24.597,160.645
-0.152,-0.136,1.057,-20.752,-16.174,145.874
-0.146,-0.221,1.024,-27.710,-4.456,136.780
-0.138,-0.204,0.949,-34.790,5.371,141.235
-0.134,-0.058,0.871,-38.086,10.559,154.480
-0.131,0.154,0.839,-37.354,6.836,166.077
-0.163,0.391,0.950,-38.391,-6.287,169.739
-0.108,0.380,1.001,-18.127,-22.095,159.790
-0.116,0.397,1.081,-34.546,-22.400,142.456
-0.105,0.254,1.073,-45.044,-19.287,125.244
-0.104,0.078,1.086,-36.011,-8.850,116.272
-0.095,0.069,1.005,-41.138,5.615,123.352
-0.141,0.172,0.921,-57.251,9.583,140.747
-0.073,0.443,0.844,-54.016,2.808,155.457
-0.020,0.849,0.858,-49.011,-9.766,167.480
-0.012,1.158,0.965,-34.241,-25.696,165.710
-0.007,1.083,1.179,-32.654,-40.039,135.498
-0.001,1.038,1.312,-43.762,-35.217,101.013
0.015,0.971,1.318,-43.701,-19.592,72.998
0.026,0.918,1.227,-33.386,-1.404,51.575
0.053,0.827,1.115,-19.104,10.254,34.241
0.065,0.733,1.005,-4.089,13.611,21.301
0.082,0.688,0.952,-2.563,9.338,17.090
0.077,0.679,0.927,0.183,0.305,17.029
0.074,0.672,0.962,-1.526,-12.268,12.817
0.059,0.601,1.013,-1.526,-22.400,2.502
0.058,0.482,1.075,1.343,-25.208,-10.132
0.060,0.323,1.079,10.315,-20.081,-20.325
0.049,0.204,1.043,8.972,-10.315,-23.987
0.051,0.096,1.011,10.742,-1.343,-22.339
0.062,0.018,0.977,21.179,7.629,-16.785
0.060,-0.011,0.910,19.470,14.954,-8.789
0.044,-0.009,0.850,11.292,15.015,-3.296
0.050,-0.004,0.852,10.803,6.958,-1.038
0.093,0.006,0.894,16.907,-4.028,-0.183
0.072,-0.004,1.008,25.024,-12.817,-1.709
0.090,-0.056,1.043,24.231,-9.399,-6.104
0.075,-0.105,0.989,1.099,-3.052,-8.850
0.083,-0.116,0.937,-5.188,-3.357,-10.620
0.092,-0.140,0.941,-1.221,-10.254,-10.254
0.106,-0.172,0.987,-0.061,-17.944,-7.690
0.093,-0.154,1.055,-3.296,-21.973,-3.479
0.101,-0.108,1.089,0.916,-19.714,-0.244
0.101,-0.095,1.111,2.380,-14.160,-0.916
0.103,-0.117,1.109,0.000,-7.446,-3.723
0.107,-0.160,1.104,-0.244,-0.183,-5.615
0.116,-0.178,1.066,4.822,7.751,-4.150
0.118,-0.153,0.991,3.662,13.916,-0.366

0.015,1.368,1.398,5.249,-80.566,100.342
0.065,1.192,1.549,6.165,-60.059,64.941
0.062,1.093,1.504,-5.554,-20.508,46.387
0.065,1.030,1.313,-18.188,17.822,35.217
0.064,0.975,1.080,-26.062,41.016,26.428
0.078,0.943,0.894,-25.879,45.044,18.982
0.060,0.996,0.780,-19.104,33.691,15.442
0.067,1.081,0.791,-7.751,10.803,11.353
0.014,1.188,0.889,4.089,-14.282,1.587
-0.007,1.165,1.103,12.939,-37.292,-19.043
-0.041,1.160,1.295,25.085,-46.814,-37.598
-0.095,1.258,1.440,28.259,-44.678,-49.744
-0.118,1.378,1.474,27.588,-34.912,-60.425
-0.184,1.424,1.490,28.870,-24.170,-78.552
-0.218,1.316,1.476,39.368,-13.794,-105.530
-0.225,1.089,1.426,47.729,-3.296,-131.714
-0.239,0.883,1.304,55.237,8.362,-145.508
-0.246,0.809,1.182,57.312,16.785,-143.738
-0.253,0.877,1.029,70.862,22.217,-133.179
-0.270,0.974,0.908,71.045,24.414,-129.089
-0.287,0.969,0.827,65.369,23.010,-140.442
-0.302,0.836,0.777,55.725,21.118,-160.217
-0.296,0.597,0.742,46.753,20.691,-180.115
-0.337,0.393,0.738,37.231,20.813,-191.223
-0.328,0.282,0.751,37.659,17.456,-189.575
-0.299,0.217,0.781,43.884,11.414,-178.711
-0.308,0.253,0.791,40.894,10.193,-166.748
-0.357,0.284,0.728,47.485,13.611,-167.603
-0.338,0.099,0.731,43.335,18.188,-180.969
-0.337,-0.067,0.727,31.128,21.973,-188.293
-0.356,-0.087,0.656,37.109,23.010,-187.439
-0.400,-0.077,0.630,39.734,14.771,-184.570
-0.441,-0.179,0.738,46.509,-5.188,-189.453
-0.452,-0.365,0.929,54.688,-21.240,-193.665
-0.400,-0.502,1.067,63.110,-23.743,-192.261
-0.386,-0.660,1.099,66.345,-11.658,-189.758
-0.406,-0.915,1.020,59.265,11.047,-194.153
-0.431,-1.215,0.874,45.227,38.086,-202.271
-0.448,-1.533,0.683,35.400,56.824,-202.148
-0.446,-1.772,0.561,21.851,61.218,-187.134
-0.417,-1.894,0.485,18.250,51.331,-159.363
-0.370,-1.886,0.484,19.775,31.860,-125.244
-0.323,-1.854,0.574,26.489,9.521,-97.961
-0.270,-1.872,0.697,27.222,-4.639,-81.787
-0.230,-1.919,0.788,21.790,-5.493,-70.435
-0.195,-1.979,0.820,14.343,2.014,-58.044
-0.168,-2.024,0.776,10.315,11.353,-42.419
-0.138,-2.000,0.699,4.822,18.311,-21.729
-0.120,-1.932,0.619,3.723,19.165,0.122
-0.114,-1.834,0.570,1.404,15.564,19.226
-0.118,-1.743,0.575,-6.897,9.949,33.508
-0.115,-1.700,0.600,-11.780,4.639,43.640
-0.110,-1.664,0.633,-16.968,1.282,53.955
-0.120,-1.596,0.646,-18.799,-0.488,68.604
-0.115,-1.480,0.644,-18.799,-0.793,86.609
-0.118,-1.345,0.635,-16.235,-1.404,102.722
-0.156,-1.245,0.635,-16.907,-1.648,113.647
-0.191,-1.235,0.642,-22.461,-0.366,119.080
-0.209,-1.274,0.645,-29.175,1.587,124.023
-0.222,-1.218,0.629,-33.936,3.479,138.367
-0.208,-0.990,0.612,-34.363,2.808,163.086
-0.190,-0.683,0.628,-30.151,-4.333,187.012
-0.184,-0.420,0.713,-26.672,-17.517,198.792
-0.187,-0.266,0.857,-24.109,-33.386,196.472
-0.206,-0.231,1.024,-22.888,-44.189,187.439
-0.253,-0.246,1.148,-23.437,-42.297,179.932
-0.283,-0.253,1.175,-26.367,-25.818,176.270
-0.318,-0.264,1.095,-30.029,-4.456,175.049
-0.297,-0.254,0.915,-36.987,17.151,176.025
-0.241,-0.133,0.702,-47.119,32.166,182.434
-0.187,0.153,0.557,-49.683,31.067,196.594
-0.162,0.514,0.546,-46.021,12.146,208.496
-0.164,0.771,0.683,-41.565,-18.372,201.660
-0.163,0.822,0.913,-40.588,-50.171,174.622
-0.147,0.714,1.160,-42.908,-69.580,141.907
-0.141,0.572,1.365,-47.729,-67.261,118.530
-0.128,0.498,1.442,-51.575,-45.227,111.145
-0.089,0.540,1.371,-48.706,-14.954,114.807
-0.030,0.752,1.198,-42.053,9.277,125.183
-0.023,1.030,1.021,-31.616,19.226,132.629
0.070,1.200,0.932,-19.104,12.939,123.352
0.054,1.117,1.102,-6.653,-7.202,93.811
0.091,1.019,1.089,9.033,-10.742,64.575
0.079,1.034,1.046,-30.090,-9.155,46.936
0.083,0.907,1.029,-19.958,-14.587,25.940
0.090,0.724,1.075,-9.644,-18.860,7.629
0.083,0.561,1.098,-7.874,-17.883,-0.732
0.084,0.463,1.077,-1.648,-9.949,-1.282
0.061,0.434,1.011,-3.662,-1.038,1.587
0.044,0.415,0.939,-6.470,4.333,0.854
0.045,0.340,0.896,-9.094,3.845,-5.981
0.045,0.214,0.902,-10.742,-1.343,-13.977
0.057,0.107,0.948,-8.057,-7.080,-15.564
0.079,0.062,1.001,-0.732,-10.559,-10.193
0.093,0.061,1.039,7.446,-10.315,-3.601
0.101,0.087,1.033,7.874,-6.714,-0.122
0.102,0.093,1.003,7.019,-3.174,-0.732
0.102,0.044,0.982,6.042,-2.747,-5.676
0.101,-0.034,0.977,2.502,-4.883,-10.376
0.083,-0.095,0.984,1.221,-7.629,-11.047

-0.146,1.366,1.187,19.165,-21.729,-39.795
-0.175,1.465,1.203,30.701,-22.400,-51.514
-0.195,1.468,1.200,39.551,-19.348,-72.571
-0.256,1.356,1.203,40.649,-13.977,-98.145
-0.284,1.294,1.242,49.683,-5.066,-120.178
-0.264,1.138,1.173,65.552,10.315,-140.381
-0.309,1.056,1.072,38.513,25.208,-153.015
-0.312,0.991,0.969,32.471,32.715,-162.903
-0.291,0.888,0.936,32.288,31.372,-172.485
-0.313,0.889,0.958,31.555,26.245,-177.979
-0.362,0.906,0.908,46.326,20.447,-190.002
-0.344,0.617,1.019,59.875,5.737,-219.177
-0.344,0.323,1.072,65.186,3.113,-238.647
-0.420,0.075,1.133,66.956,11.597,-244.873
-0.525,0.070,0.975,66.589,31.006,-239.563
-0.679,-0.019,0.885,58.960,33.447,-245.361
-0.757,-0.335,0.935,68.970,21.790,-265.503
-0.783,-0.705,1.007,73.853,18.799,-281.921
-0.790,-1.051,1.045,63.843,32.593,-286.743
-0.787,-1.332,0.962,47.363,63.110,-282.288
-0.791,-1.561,0.783,20.996,94.055,-273.682
-0.755,-1.789,0.581,3.967,111.084,-262.207
-0.719,-2.019,0.413,1.221,109.131,-245.483
-0.619,-2.208,0.292,12.390,92.163,-220.093
-0.486,-2.313,0.207,30.090,67.871,-183.838
-0.389,-2.298,0.167,41.931,42.603,-139.343
-0.344,-2.208,0.199,44.617,17.761,-97.168
-0.292,-2.105,0.293,47.241,-4.639,-65.247
-0.254,-2.044,0.439,43.640,-19.470,-44.861
-0.233,-2.045,0.564,27.649,-23.193,-32.837
-0.230,-2.084,0.634,4.517,-12.634,-23.132
-0.240,-2.115,0.628,-16.113,5.066,-11.108
-0.263,-2.117,0.552,-33.020,19.409,4.395
-0.293,-2.096,0.498,-41.016,20.264,24.719
-0.318,-2.040,0.482,-31.982,9.583,49.561
-0.334,-1.887,0.510,-24.353,-3.845,78.430
-0.353,-1.692,0.595,-18.677,-18.311,104.797
-0.356,-1.499,0.728,-15.442,-31.677,123.291
-0.343,-1.370,0.861,-13.733,-40.100,134.888
-0.317,-1.243,0.971,-18.982,-41.382,146.118
-0.302,-1.108,1.037,-20.630,-35.400,157.593
-0.312,-0.989,1.065,-19.470,-23.926,168.213
-0.340,-0.902,1.070,-21.484,-9.399,174.683
-0.359,-0.876,1.046,-23.621,2.991,177.612
-0.358,-0.874,0.994,-21.790,12.207,182.312
-0.356,-0.833,0.920,-18.738,18.677,193.359
-0.349,-0.755,0.816,-15.198,22.461,207.520
-0.321,-0.587,0.710,-20.508,23.254,222.290
-0.285,-0.312,0.640,-29.053,19.104,236.389
-0.260,0.005,0.630,-28.503,6.531,242.493
-0.263,0.232,0.706,-24.414,-12.695,234.619
-0.262,0.259,0.857,-25.208,-31.250,209.534
-0.260,0.113,1.018,-32.837,-38.696,179.138
-0.265,-0.052,1.110,-40.955,-31.311,161.926
-0.245,-0.084,1.097,-46.204,-13.184,165.466
-0.210,0.112,1.001,-50.354,4.822,186.401
-0.192,0.468,0.913,-51.392,12.146,211.121
-0.195,0.809,0.907,-46.021,6.287,224.976
-0.200,1.041,0.972,-38.147,-10.925,218.323
-0.184,1.139,1.065,-28.564,-27.954,192.505
-0.129,1.081,1.156,-24.597,-33.691,155.945
-0.112,0.907,1.224,-24.048,-24.719,120.300
-0.124,0.841,1.139,-28.992,-7.141,98.633
-0.053,0.604,1.124,-17.822,9.094,91.553
-0.012,0.962,0.797,-24.231,35.095,105.103
-0.060,1.180,0.685,-54.077,21.484,103.210
-0.032,1.109,0.788,-7.874,-17.578,76.538
0.001,1.000,1.066,5.859,-51.575,53.711
0.011,0.851,1.322,21.667,-65.918,42.542
0.047,0.818,1.395,26.428,-46.387,40.161
-0.019,0.834,1.294,3.784,-14.526,37.109
0.091,0.694,1.268,9.888,15.076,27.832
-0.007,0.736,1.027,3.601,43.091,16.357
0.055,0.478,0.881,-28.259,47.302,5.859
0.048,0.508,0.698,-22.156,46.143,5.127
0.049,0.541,0.629,-24.536,21.179,0.610
0.070,0.464,0.663,-1.343,-11.536,-12.024
0.087,0.303,0.886,0.427,-39.246,-24.231
0.105,0.128,1.103,10.681,-50.049,-25.513
0.083,0.130,1.178,10.132,-38.635,-14.832
0.081,0.176,1.258,5.554,-21.667,-8.423
0.111,0.177,1.100,23.376,0.183,-12.146
0.095,0.167,0.936,-5.859,14.526,-20.264
0.100,0.031,0.848,-10.742,10.620,-30.273
0.100,-0.071,0.847,4.028,0.549,-32.166
0.097,-0.130,0.890,8.606,-9.827,-27.893
0.080,-0.159,0.953,9.338,-17.395,-22.644
0.072,-0.181,1.033,12.146,-21.362,-18.677
0.074,-0.195,1.103,17.334,-19.714,-14.160
0.077,-0.188,1.132,16.418,-13.184,-9.033
0.090,-0.172,1.107,12.756,-4.700,-5.737
0.109,-0.154,1.041,9.277,3.113,-4.395
0.125,-0.137,0.968,6.287,8.484,-4.028
0.138,-0.122,0.904,4.639,9.033,-3.845
0.140,-0.123,0.881,3.418,4.395,-4.150
0.146,-0.151,0.905,2.869,-2.930,-5.249
0.146,-0.184,0.956,2.563,-9.460,-5.310
0.145,-0.195,1.001,1.038,-12.146,-3.174
0.140,-0.178,1.030,-0.244,-10.559,-0.061
0.144,-0.156,1.041,-1.160,-7.019,2.441

-0.108,1.456,1.350,11.963,-55.359,-29.724
-0.139,1.515,1.458,23.621,-52.429,-54.565
-0.161,1.501,1.517,33.447,-39.795,-81.604
-0.199,1.435,1.497,41.504,-20.935,-103.943
-0.217,1.373,1.406,48.584,-0.427,-121.033
-0.223,1.307,1.267,57.800,16.846,-134.216
-0.250,1.213,1.128,66.833,29.419,-146.790
-0.284,1.065,1.009,67.505,35.461,-161.621
-0.306,0.938,0.917,64.087,36.743,-174.744
-0.308,0.837,0.824,65.674,34.424,-182.007
-0.322,0.717,0.921,59.875,28.015,-187.988
-0.397,0.691,0.790,64.331,29.968,-195.129
-0.432,0.459,0.837,62.683,18.494,-213.135
-0.455,0.269,0.857,70.618,11.230,-225.708
-0.494,0.100,0.870,77.393,11.353,-231.689
-0.555,-0.079,0.899,76.294,12.939,-237.671
-0.623,-0.264,0.911,74.524,17.334,-243.835
-0.676,-0.427,0.918,67.566,20.813,-245.056
-0.707,-0.612,0.929,67.322,24.780,-247.131
-0.746,-0.877,0.935,62.378,31.799,-254.211
-0.773,-1.193,0.907,54.810,44.434,-262.207
-0.720,-1.498,0.800,53.040,61.951,-260.681
-0.649,-1.708,0.658,51.636,79.468,-245.789
-0.567,-1.833,0.498,49.561,88.379,-220.520
-0.507,-1.900,0.353,52.063,81.909,-189.026
-0.477,-1.928,0.309,49.866,61.523,-157.898
-0.491,-1.892,0.292,47.363,37.598,-133.179
-0.450,-2.005,0.421,46.692,9.277,-117.920
-0.433,-2.049,0.519,46.753,-0.061,-101.990
-0.433,-2.166,0.544,25.391,7.202,-88.989
-0.488,-2.265,0.557,-0.977,17.212,-72.998
-0.490,-2.362,0.502,-2.991,23.132,-54.260
-0.495,-2.392,0.490,-7.446,19.775,-30.029
-0.437,-2.347,0.438,2.136,15.320,-0.366
-0.423,-2.166,0.397,1.221,12.390,31.799
-0.430,-2.005,0.360,-6.409,9.216,56.152
-0.420,-1.951,0.366,-21.606,5.249,68.665
-0.419,-1.913,0.416,-38.147,-0.244,80.933
-0.437,-1.859,0.503,-42.175,-7.568,100.586
-0.449,-1.714,0.625,-38.574,-12.573,126.221
-0.409,-1.584,0.548,-32.776,-9.521,151.794
-0.398,-1.305,0.476,-67.627,-5.798,173.157
-0.409,-1.064,0.438,-73.364,-12.939,187.439
-0.349,-0.859,0.442,-56.335,-21.606,190.918
-0.373,-0.782,0.550,-58.228,-32.288,184.326
-0.393,-0.882,0.699,-52.612,-40.527,172.302
-0.409,-0.996,0.810,-52.551,-39.307,172.119
-0.437,-0.985,0.907,-57.739,-34.668,190.247
-0.480,-0.848,0.990,-55.420,-32.410,221.680
-0.528,-0.588,1.062,-50.720,-31.067,254.578
-0.532,-0.265,1.114,-44.312,-28.320,281.067
-0.555,0.029,1.140,-40.955,-23.743,291.260
-0.540,0.203,1.157,-42.664,-16.113,281.677
-0.505,0.209,1.111,-41.626,-4.150,256.775
-0.467,0.180,0.997,-49.133,14.648,235.474
-0.469,0.155,0.853,-57.678,31.494,226.990
-0.440,0.123,0.702,-60.669,35.400,228.027
-0.529,0.240,0.802,-73.364,23.804,236.511
-0.468,0.273,0.806,-49.561,9.277,248.718
-0.460,0.618,0.869,-63.538,-2.441,270.142
-0.348,0.976,0.868,-51.941,-15.137,291.565
-0.440,1.438,0.998,-46.265,-23.926,299.744
-0.297,1.717,1.096,-40.771,-37.048,280.884
-0.224,1.964,1.155,-30.273,-31.311,244.873
-0.031,2.113,1.145,-33.386,-22.644,184.387
-0.356,1.971,1.139,-21.179,-24.841,103.088
0.008,1.539,1.203,15.198,-33.386,35.522
-0.082,1.240,1.146,51.941,-30.212,6.714
0.019,1.088,1.132,30.945,-27.283,3.174
-0.008,1.057,1.007,35.034,-20.325,7.446
-0.001,1.017,0.964,27.649,-21.423,2.686
-0.015,0.938,0.963,25.574,-22.522,-6.470
-0.075,0.863,1.006,25.818,-20.630,-15.137
-0.076,0.851,1.066,14.038,-17.456,-20.508
-0.007,0.648,1.147,20.447,-13.489,-26.794
-0.023,0.665,1.151,16.602,-0.549,-30.823
-0.073,0.617,1.172,-6.531,4.211,-40.222
-0.062,0.483,1.184,1.526,9.216,-52.185
-0.077,0.482,1.093,3.174,22.461,-59.509
-0.090,0.440,0.953,0.305,27.954,-72.815
-0.088,0.337,0.884,0.793,22.949,-88.745
-0.092,0.185,0.863,9.705,9.705,-99.854
-0.058,0.067,0.903,13.733,-5.371,-103.455
-0.042,-0.050,0.975,22.766,-19.592,-101.196
-0.028,-0.130,1.034,35.400,-25.208,-92.834
-0.025,-0.165,1.080,35.156,-21.240,-82.581
-0.035,-0.128,1.073,24.841,-11.963,-74.280
-0.028,-0.014,1.021,16.113,-2.380,-66.956
-0.023,0.054,0.978,13.184,1.282,-67.444
-0.029,0.011,0.955,11.597,-0.366,-77.942
-0.018,-0.090,0.970,6.409,-3.845,-88.745
0.032,-0.165,0.990,7.080,-5.920,-90.088
0.056,-0.195,1.012,11.292,-8.179,-82.703
0.051,-0.215,1.030,16.296,-8.179,-74.036
0.046,-0.231,1.033,16.418,-4.395,-67.749
0.028,-0.241,1.010,18.494,0.366,-62.622
0.023,-0.197,0.982,19.531,3.784,-55.359
0.010,-0.130,0.954,21.851,4.578,-49.500
-0.021,-0.106,0.962,21.790,2.747,-49.561
-0.044,-0.123,0.992,18.982,0.732,-54.321

-0.318,-1.637,0.661,4.272,18.921,65.979
-0.333,-1.593,0.614,4.028,15.686,90.759
-0.349,-1.414,0.534,-2.991,16.602,119.934
-0.383,-1.234,0.466,-18.616,17.944,139.771
-0.387,-1.149,0.428,-42.664,16.785,147.217
-0.406,-1.045,0.441,-68.542,13.245,155.579
-0.422,-0.819,0.469,-82.581,6.653,174.805
-0.429,-0.497,0.558,-87.952,-4.150,197.510
-0.406,-0.164,0.703,-85.632,-17.517,212.585
-0.399,0.118,0.863,-82.275,-28.564,218.933
-0.368,0.319,1.007,-78.552,-33.447,218.506
-0.315,0.503,1.106,-71.533,-29.541,214.661
-0.250,0.795,1.124,-68.420,-19.592,218.079
-0.209,1.146,1.094,-60.181,-12.451,222.900
-0.163,1.449,1.082,-50.537,-12.634,212.463
-0.100,1.619,1.122,-44.678,-17.822,183.289
-0.042,1.703,1.196,-41.626,-21.851,149.231
-0.014,1.726,1.276,-33.875,-21.973,120.728
0.002,1.735,1.334,-27.039,-17.090,96.802
0.020,1.732,1.327,-19.714,-5.920,76.233
0.022,1.737,1.261,-15.198,9.277,58.167
0.030,1.736,1.136,-12.573,24.719,41.260
0.047,1.769,0.983,-11.230,36.133,26.672
0.068,1.854,0.825,-7.629,40.466,13.062
0.071,1.936,0.707,-2.869,36.621,-2.869
0.053,1.916,0.658,2.686,24.902,-27.283
0.015,1.760,0.690,7.751,7.812,-57.007
-0.019,1.588,0.762,14.160,-6.042,-79.651
-0.070,1.488,0.835,20.996,-14.832,-90.576
-0.122,1.453,0.881,28.076,-18.005,-96.802
-0.167,1.433,0.888,31.799,-16.418,-106.201
-0.215,1.353,0.874,32.227,-13.733,-121.277
-0.255,1.210,0.859,32.349,-12.390,-138.977
-0.301,1.017,0.868,33.936,-15.137,-155.579
-0.333,0.822,0.903,35.706,-19.958,-167.480
-0.355,0.673,0.938,35.583,-22.705,-172.974
-0.394,0.562,0.974,35.706,-22.644,-174.866
-0.415,0.516,0.940,35.339,-18.799,-177.979
-0.423,0.384,0.968,28.809,-18.127,-185.303
-0.401,0.271,0.962,25.330,-16.663,-192.627
-0.410,0.132,0.971,16.357,-15.198,-201.599
-0.407,-0.054,1.006,11.536,-16.663,-213.257
-0.430,-0.238,1.057,11.780,-18.127,-218.872
-0.457,-0.365,1.108,15.869,-20.325,-215.942
-0.492,-0.436,1.195,25.391,-24.231,-207.886
-0.491,-0.539,1.274,42.786,-26.306,-204.285
-0.502,-0.688,1.340,52.551,-22.217,-206.482
-0.517,-0.902,1.347,54.565,-12.634,-211.243
-0.543,-1.125,1.317,48.523,-0.366,-213.928
-0.559,-1.367,1.258,47.607,11.536,-212.219
-0.551,-1.558,1.188,47.363,22.766,-202.942
-0.522,-1.711,1.086,46.997,32.654,-187.744
-0.514,-1.838,0.962,47.791,41.260,-172.729
-0.505,-1.991,0.843,43.213,45.959,-161.011
-0.488,-2.204,0.757,43.762,45.105,-149.170
-0.510,-2.367,0.717,46.936,46.753,-133.057
-0.407,-2.584,0.575,38.452,49.927,-108.582
-0.499,-2.578,0.521,7.935,43.945,-67.078
-0.437,-2.525,0.474,33.997,35.889,-29.236
-0.387,-2.426,0.481,25.330,27.466,3.296
-0.355,-2.312,0.541,28.137,19.043,35.828
-0.317,-2.124,0.507,34.973,25.330,64.697
-0.289,-1.913,0.403,-12.573,33.997,90.942
-0.287,-1.779,0.314,-30.823,29.419,106.995
-0.269,-1.567,0.281,-41.626,18.188,117.981
-0.311,-1.444,0.340,-52.368,-7.446,131.409
-0.304,-1.277,0.547,-30.823,-35.828,147.095
-0.291,-1.070,0.771,-14.099,-50.903,166.016
-0.295,-0.908,0.914,-10.010,-49.194,179.443
-0.310,-0.798,0.977,-16.602,-34.302,183.533
-0.308,-0.700,0.930,-30.823,-13.916,182.922
-0.309,-0.600,0.852,-42.297,-0.122,184.692
-0.301,-0.493,0.781,-38.269,6.104,188.721
-0.302,-0.396,0.769,-37.415,5.310,191.895
-0.307,-0.312,0.813,-35.522,-0.916,193.237
-0.300,-0.208,0.868,-29.358,-8.850,197.083
-0.298,-0.109,0.941,-24.841,-17.822,201.843
-0.264,0.034,0.999,-19.897,-23.743,205.383
-0.233,0.265,1.031,-15.015,-24.353,213.440
-0.224,0.495,1.048,-11.902,-21.790,216.919
-0.235,0.614,1.088,-12.756,-20.935,203.918
-0.223,0.578,1.155,-15.015,-22.522,177.307
-0.160,0.537,1.218,-15.320,-22.034,157.654
-0.122,0.650,1.262,-11.719,-18.616,158.997
-0.112,0.891,1.282,-5.310,-15.930,169.983
-0.087,1.120,1.285,1.465,-13.184,171.997
-0.069,1.233,1.284,3.906,-8.728,150.818
-0.058,1.202,1.279,-1.465,-0.122,112.793
0.038,0.835,1.200,6.409,16.785,73.975
-0.021,0.719,1.069,-25.574,40.894,53.589
0.051,0.504,0.893,-43.457,52.185,51.514
0.043,0.674,0.695,-44.312,58.044,64.331
0.065,0.851,0.613,-42.725,41.199,69.824
0.069,0.911,0.655,-19.958,10.742,59.082
0.094,0.826,0.821,-5.981,-17.334,39.490
0.116,0.720,0.977,3.540,-31.616,23.376
0.113,0.671,1.060,9.155,-30.884,15.076
0.100,0.615,1.060,15.320,-21.423,6.287
0.093,0.507,1.004,17.822,-12.512,-5.981
0.093,0.334,0.979,11.230,-8.911,-18.127

-0.576,-1.112,1.023,58.289,18.127,-204.285
-0.555,-1.219,0.958,59.875,34.546,-189.392
-0.573,-1.291,0.849,49.377,48.828,-178.101
-0.575,-1.385,0.728,42.419,56.458,-169.312
-0.560,-1.544,0.629,40.161,61.523,-165.588
-0.523,-1.757,0.549,33.630,65.735,-163.696
-0.505,-1.931,0.502,18.982,64.636,-152.954
-0.501,-2.011,0.471,17.212,56.030,-127.258
-0.465,-2.021,0.438,20.630,43.396,-96.375
-0.417,-1.972,0.437,20.935,30.762,-68.176
-0.336,-1.855,0.439,25.269,20.203,-42.542
-0.281,-1.705,0.465,24.902,12.390,-20.813
-0.239,-1.614,0.500,17.273,8.362,-9.155
-0.228,-1.645,0.511,6.470,10.803,-6.897
-0.254,-1.752,0.494,-5.310,16.968,-5.615
-0.295,-1.860,0.429,-12.878,23.743,1.160
-0.312,-1.905,0.296,-19.043,29.724,14.709
-0.309,-1.882,0.199,-29.297,29.724,32.959
-0.304,-1.821,0.147,-27.527,19.043,54.016
-0.317,-1.684,0.186,-26.001,1.221,78.308
-0.327,-1.569,0.306,-21.606,-19.836,97.900
-0.352,-1.498,0.457,-19.714,-35.400,111.328
-0.377,-1.472,0.569,-20.142,-39.856,122.253
-0.381,-1.453,0.611,-24.597,-33.936,132.874
-0.397,-1.394,0.562,-32.654,-19.409,145.752
-0.386,-1.308,0.452,-48.584,-1.221,157.471
-0.397,-1.266,0.346,-65.125,10.376,164.734
-0.421,-1.254,0.310,-78.918,8.789,170.837
-0.422,-1.206,0.349,-83.862,-2.808,182.007
-0.440,-1.083,0.450,-80.872,-19.409,200.012
-0.486,-0.905,0.587,-76.172,-35.095,220.032
-0.493,-0.718,0.720,-72.510,-45.593,235.962
-0.485,-0.487,0.820,-69.641,-51.147,248.169
-0.462,-0.197,0.857,-67.932,-51.270,257.202
-0.443,0.050,0.891,-66.711,-48.828,257.996
-0.458,0.214,0.967,-69.702,-49.744,249.573
-0.476,0.302,1.065,-69.641,-52.124,236.694
-0.475,0.327,1.159,-69.580,-52.063,221.619
-0.437,0.374,1.247,-73.547,-47.302,210.571
-0.402,0.553,1.289,-75.439,-37.964,212.219
-0.395,0.825,1.286,-69.885,-29.297,221.619
-0.356,1.078,1.292,-60.120,-26.245,221.008
-0.297,1.276,1.347,-52.429,-29.053,205.994
-0.247,1.435,1.415,-41.382,-32.104,186.279
-0.212,1.544,1.507,-26.123,-34.302,165.955
-0.142,1.546,1.628,-7.690,-31.555,141.602
-0.176,1.613,1.641,-2.197,-17.883,117.737
-0.007,1.339,1.573,11.780,4.272,93.262
-0.052,1.571,1.231,-9.949,48.889,83.740
-0.056,1.501,0.933,-37.720,61.646,55.908
-0.012,1.192,0.799,-18.188,48.706,19.714
0.000,1.022,0.779,-21.606,26.917,9.338
-0.000,1.021,0.800,-10.986,4.883,16.479
-0.003,1.148,0.904,-3.174,-11.475,24.353
0.030,1.243,0.975,8.911,-17.822,22.278
0.017,1.293,1.009,4.700,-16.541,7.996
0.001,1.196,1.062,5.066,-14.221,-14.893
0.020,1.010,1.067,17.395,-6.409,-36.560
0.023,0.838,1.050,15.320,3.723,-46.875
0.018,0.714,0.957,18.372,15.442,-48.950
0.005,0.727,0.992,8.667,21.729,-46.326
0.020,0.637,0.873,33.691,27.954,-47.485
0.014,0.724,0.766,13.000,32.349,-51.880
-0.015,0.745,0.644,10.376,19.714,-63.599
0.024,0.711,0.701,18.127,-4.395,-80.383
-0.005,0.593,0.873,27.893,-30.518,-93.872
-0.012,0.457,1.047,35.217,-41.260,-103.760
-0.026,0.365,1.118,29.297,-34.668,-108.276
-0.040,0.380,1.110,18.372,-22.705,-106.445
-0.074,0.464,1.086,16.174,-15.991,-101.929
-0.116,0.562,1.102,24.231,-16.296,-101.013
-0.144,0.612,1.164,33.508,-20.386,-107.361
-0.140,0.589,1.223,44.678,-20.996,-119.568
-0.146,0.483,1.245,49.683,-13.733,-134.766
-0.136,0.277,1.186,48.035,0.854,-149.536
-0.151,0.084,1.069,40.710,16.479,-157.959
-0.147,-0.044,0.936,39.429,25.330,-158.142
-0.165,-0.142,0.845,44.434,25.696,-154.785
-0.175,-0.233,0.779,50.476,22.034,-150.391
-0.218,-0.366,0.769,51.270,15.076,-148.621
-0.242,-0.492,0.802,48.706,7.019,-147.034
-0.248,-0.592,0.870,51.575,-1.526,-142.334
-0.266,-0.679,0.963,53.345,-8.728,-135.254
-0.272,-0.758,1.035,50.964,-8.057,-129.944
-0.279,-0.827,1.046,44.983,1.221,-125.916
-0.274,-0.897,1.001,36.926,15.503,-122.131
-0.259,-0.995,0.924,31.555,29.602,-119.690
-0.241,-1.113,0.836,29.663,38.879,-117.737
-0.227,-1.267,0.761,28.870,41.382,-113.220
-0.203,-1.393,0.699,30.029,39.551,-103.149
-0.162,-1.461,0.645,31.982,33.264,-86.182
-0.138,-1.453,0.625,34.790,23.010,-64.087
-0.130,-1.388,0.641,39.368,11.658,-41.138
-0.116,-1.309,0.696,39.551,2.075,-24.353
-0.076,-1.248,0.748,38.574,-3.357,-13.733
-0.038,-1.160,0.773,33.325,-2.930,-3.845
-0.012,-1.070,0.760,24.658,1.587,4.211
0.011,-0.997,0.725,13.611,6.714,9.460
0.035,-0.917,0.693,5.493,8.423,14.648
0.046,-0.813,0.688,2.258,4.395,21.667

-0.287,-1.629,0.761,-7.446,13.428,16.235
-0.288,-1.669,0.701,-9.094,17.334,33.936
-0.312,-1.686,0.612,-14.038,22.583,50.720
-0.332,-1.691,0.516,-22.339,27.710,66.895
-0.366,-1.689,0.450,-31.738,28.015,81.482
-0.381,-1.673,0.407,-37.842,22.461,97.229
-0.404,-1.601,0.388,-43.701,15.198,116.821
-0.443,-1.486,0.386,-49.683,8.118,138.428
-0.492,-1.360,0.406,-55.847,2.075,156.738
-0.533,-1.307,0.472,-62.012,-4.578,171.082
-0.564,-1.226,0.583,-69.946,-10.742,188.171
-0.587,-1.052,0.703,-75.562,-15.869,214.050
-0.552,-0.741,0.829,-79.773,-19.714,245.850
-0.497,-0.226,0.945,-86.304,-22.522,281.555
-0.467,0.405,1.050,-86.243,-27.405,314.575
-0.428,0.965,1.214,-78.430,-35.767,328.491
-0.416,1.348,1.379,-65.552,-44.312,306.580
-0.333,1.437,1.534,-59.753,-41.809,253.174
-0.253,1.168,1.581,-55.237,-18.738,186.340
-0.223,0.734,1.442,-67.200,19.836,136.230
-0.196,0.469,1.165,-83.008,60.425,122.314
-0.153,0.605,0.862,-91.248,80.994,143.921
-0.109,1.039,0.690,-79.956,73.120,177.368
-0.058,1.511,0.710,-61.829,42.358,188.232
-0.069,1.791,0.914,-41.138,5.249,166.931
0.046,1.823,1.127,-16.602,-17.822,124.390
0.074,1.655,1.257,-19.592,-18.127,80.688
-0.015,1.462,1.299,-20.081,-2.686,44.250
0.118,1.196,1.176,0.061,16.235,30.029
0.122,1.462,0.932,-5.859,41.077,45.959
0.116,1.708,0.703,-12.512,46.326,50.049
0.121,1.793,0.628,-2.747,28.564,30.457
0.142,1.660,0.706,11.719,1.587,1.953
0.145,1.535,0.793,21.301,-12.756,-19.897
0.126,1.461,0.878,16.235,-15.198,-32.104
0.109,1.405,0.911,25.391,-10.681,-42.480
0.094,1.382,0.887,24.353,-2.502,-52.917
0.077,1.329,0.834,24.841,2.136,-66.589
0.079,1.237,0.771,30.457,2.930,-81.726
0.077,1.141,0.697,34.180,2.502,-95.886
0.058,1.071,0.629,33.936,0.366,-106.812
0.032,1.021,0.588,31.616,-5.981,-116.272
-0.024,0.968,0.614,26.245,-17.944,-126.343
-0.075,0.858,0.681,26.062,-30.151,-138.184
-0.129,0.744,0.762,23.132,-38.086,-149.109
-0.190,0.645,0.843,18.799,-41.321,-155.396
-0.238,0.612,0.863,16.052,-40.894,-156.555
-0.323,0.611,0.936,12.085,-44.312,-157.837
-0.343,0.550,1.051,20.752,-53.833,-164.612
-0.349,0.431,1.173,31.616,-59.204,-173.157
-0.344,0.295,1.261,39.856,-53.711,-179.199
-0.346,0.186,1.253,42.847,-38.086,-179.871
-0.347,0.116,1.154,40.527,-20.264,-178.833
-0.351,0.089,1.029,36.438,-8.911,-177.246
-0.356,0.081,0.955,34.302,-8.301,-177.002
-0.352,0.044,0.947,37.659,-14.648,-179.382
-0.352,-0.032,0.994,40.955,-23.071,-184.387
-0.374,-0.145,1.085,41.382,-27.832,-190.247
-0.399,-0.265,1.173,41.016,-25.879,-194.641
-0.380,-0.421,1.185,41.443,-16.602,-196.716
-0.403,-0.541,1.161,28.564,-6.653,-195.557
-0.399,-0.634,1.109,28.015,-0.183,-189.941
-0.410,-0.692,1.083,34.607,1.526,-182.434
-0.406,-0.810,1.063,42.053,0.488,-178.589
-0.408,-0.964,1.044,41.077,0.977,-178.284
-0.415,-1.128,1.003,34.912,6.042,-177.429
-0.451,-1.310,0.946,25.757,14.404,-174.072
-0.524,-1.527,0.929,11.658,21.973,-170.898
-0.571,-1.770,0.934,3.052,23.254,-164.673
-0.581,-1.989,0.929,4.211,21.912,-149.414
-0.574,-2.155,0.884,9.155,23.987,-126.221
-0.599,-2.202,0.834,14.404,28.564,-100.342
-0.514,-2.365,0.728,18.616,33.569,-75.684
-0.497,-2.306,0.627,2.258,34.790,-38.452
-0.439,-2.168,0.541,16.113,30.273,-1.831
-0.390,-2.021,0.527,13.306,22.705,26.123
-0.338,-1.893,0.547,6.653,15.442,46.631
-0.318,-1.750,0.599,-3.357,11.841,64.453
-0.216,-1.682,0.648,-9.460,12.329,79.895
-0.233,-1.561,0.721,-11.169,16.541,97.168
-0.149,-1.355,0.536,-25.940,27.039,114.258
-0.210,-1.032,0.480,-75.317,18.250,135.254
-0.136,-0.796,0.508,-30.457,-6.775,143.677
-0.120,-0.676,0.692,-17.029,-29.846,143.555
-0.136,-0.688,0.897,-12.817,-40.527,137.085
-0.165,-0.731,1.036,-18.616,-35.706,134.094
-0.172,-0.710,1.058,-14.404,-16.846,135.925
-0.207,-0.693,0.990,-26.672,2.625,139.832
-0.221,-0.722,0.926,-33.813,13.306,142.761
-0.207,-0.707,0.897,-28.320,16.663,151.794
-0.155,-0.577,0.880,-24.597,16.602,168.640
-0.110,-0.296,0.859,-22.461,15.198,188.477
-0.097,0.021,0.867,-22.766,10.986,204.041
-0.117,0.248,0.938,-21.118,-1.587,203.247
-0.119,0.312,1.085,-19.836,-18.677,184.814
-0.099,0.273,1.259,-17.273,-27.466,162.109
-0.115,0.278,1.354,-16.235,-21.240,151.917
-0.144,0.343,1.338,-14.648,-3.357,150.818
-0.146,0.419,1.223,-10.986,15.686,147.705
-0.124,0.503,1.063,-9.521,28.992,142.944

0.002,1.199,1.298,15.381,-8.911,-58.777
-0.018,1.252,1.258,19.409,-1.709,-69.763
-0.045,1.280,1.236,27.649,-0.488,-80.322
-0.072,1.287,1.267,36.255,-2.747,-91.675
-0.087,1.278,1.324,46.021,-5.493,-103.821
-0.079,1.285,1.336,54.077,-1.892,-115.479
-0.094,1.266,1.304,58.044,7.507,-128.845
-0.167,1.151,1.254,57.129,19.775,-146.484
-0.180,0.946,1.222,51.758,31.128,-163.574
-0.300,0.890,0.974,55.481,41.870,-175.415
-0.384,0.624,0.955,59.448,35.400,-194.458
-0.411,0.334,0.927,73.608,28.564,-207.642
-0.488,0.108,0.949,64.453,26.123,-210.754
-0.537,-0.073,0.999,62.073,26.855,-211.487
-0.532,-0.211,0.981,62.134,35.095,-212.341
-0.577,-0.385,0.900,48.340,47.729,-215.759
-0.670,-0.540,0.713,26.062,61.279,-230.164
-0.681,-0.925,0.609,20.569,56.396,-249.512
-0.656,-1.367,0.571,32.349,44.983,-254.395
-0.606,-1.654,0.501,36.316,42.725,-234.497
-0.535,-1.775,0.458,27.649,42.175,-200.439
-0.506,-1.798,0.402,21.545,40.039,-167.358
-0.485,-1.783,0.400,6.104,31.799,-142.639
-0.443,-1.854,0.449,1.648,14.893,-126.465
-0.430,-1.892,0.536,1.709,0.854,-110.168
-0.423,-1.950,0.623,4.028,-6.470,-94.116
-0.424,-2.011,0.683,1.953,-5.310,-78.308
-0.438,-2.064,0.692,-2.625,-0.793,-60.974
-0.464,-2.105,0.667,-2.808,4.150,-41.382
-0.485,-2.147,0.624,-3.174,6.714,-20.752
-0.477,-2.183,0.580,-1.526,7.080,-1.099
-0.467,-2.174,0.547,-2.930,5.798,20.203
-0.452,-2.094,0.510,-5.249,4.089,44.739
-0.417,-1.936,0.472,-10.193,2.319,69.153
-0.408,-1.755,0.455,-18.311,-0.366,89.233
-0.397,-1.615,0.481,-25.146,-5.310,103.577
-0.385,-1.536,0.538,-25.757,-12.695,114.075
-0.359,-1.436,0.607,-23.865,-19.043,128.540
-0.345,-1.284,0.657,-19.470,-22.888,148.987
-0.362,-1.096,0.710,-15.686,-25.330,169.617
-0.358,-0.985,0.796,-12.512,-29.236,185.242
-0.371,-0.868,0.900,-8.850,-31.738,199.585
-0.402,-0.720,1.012,-10.681,-32.043,216.980
-0.375,-0.508,1.092,-17.578,-29.297,230.896
-0.352,-0.212,1.091,-26.550,-17.517,242.249
-0.350,0.070,1.021,-40.771,-0.183,240.784
-0.356,0.163,0.929,-55.908,16.052,219.421
-0.376,0.001,0.844,-70.251,21.912,183.655
-0.393,-0.268,0.807,-78.003,20.447,157.288
-0.398,-0.380,0.798,-76.172,15.137,159.424
-0.362,-0.166,0.819,-68.909,5.920,186.768
-0.348,0.228,0.903,-60.669,-6.409,218.506
-0.345,0.614,1.036,-56.152,-20.142,236.389
-0.300,0.879,1.187,-52.124,-30.640,232.361
-0.232,0.955,1.307,-50.659,-30.334,202.393
-0.173,0.831,1.361,-51.453,-16.052,163.391
-0.137,0.658,1.286,-57.678,12.024,134.766
-0.093,0.684,1.083,-70.862,43.091,130.432
-0.008,0.903,0.845,-69.092,60.120,143.677
0.062,1.106,0.802,-49.377,53.833,153.381
-0.004,1.217,0.787,-34.973,41.016,146.179
0.097,1.211,0.832,-57.617,24.902,128.845
0.076,1.318,0.779,-43.274,18.860,111.938
0.120,1.396,0.767,-42.358,10.193,91.431
0.141,1.332,0.819,-30.701,-3.601,67.139
0.153,1.211,0.927,-18.738,-17.029,44.312
0.194,1.141,1.000,-6.653,-21.545,32.593
0.171,1.217,1.001,4.089,-17.761,31.738
0.158,1.294,0.972,9.949,-12.695,26.611
0.151,1.329,0.938,8.118,-11.658,13.123
0.129,1.329,0.938,4.456,-15.930,-1.587
0.101,1.311,0.962,5.554,-21.301,-15.869
0.033,1.299,1.018,4.883,-27.466,-29.724
0.002,1.267,1.093,11.475,-32.349,-43.518
-0.030,1.197,1.173,17.395,-35.522,-58.960
-0.066,1.100,1.227,24.475,-33.936,-74.890
-0.040,1.007,1.206,35.217,-24.902,-87.280
-0.064,0.952,1.151,40.466,-14.648,-95.642
-0.085,0.889,1.077,36.560,-7.202,-103.088
-0.103,0.827,1.002,32.898,-2.502,-111.938
-0.114,0.783,0.970,25.879,-2.014,-120.300
-0.168,0.667,0.975,24.658,-7.507,-131.714
-0.177,0.528,1.032,23.376,-14.465,-143.555
-0.197,0.385,1.102,28.992,-19.348,-150.879
-0.164,0.284,1.152,34.180,-18.799,-149.658
-0.190,0.190,1.174,33.447,-12.756,-143.555
-0.213,0.300,1.080,35.095,-2.869,-135.437
-0.225,0.235,1.074,46.326,0.244,-137.756
-0.223,0.154,1.071,45.898,1.831,-141.724
-0.245,0.097,1.085,43.579,5.249,-142.212
-0.256,-0.002,1.135,44.739,8.728,-143.494
-0.241,-0.023,1.058,41.565,20.752,-145.447
-0.290,-0.023,0.871,35.889,32.959,-154.968
-0.286,-0.319,0.834,38.940,27.893,-179.932
-0.270,-0.636,0.823,44.556,22.827,-195.068
-0.238,-0.914,0.809,52.612,21.118,-188.721
-0.195,-1.073,0.798,54.260,20.691,-168.640
-0.158,-1.067,0.718,54.382,22.339,-140.198
-0.141,-0.995,0.660,48.889,19.409,-117.126
-0.142,-1.010,0.667,40.710,9.033,-108.398

-0.330,-1.532,0.720,-23.132,20.691,77.820
-0.359,-1.548,0.651,-28.198,25.818,93.811
-0.354,-1.549,0.589,-31.921,27.710,110.901
-0.372,-1.505,0.554,-35.889,24.048,131.714
-0.391,-1.397,0.567,-39.856,15.564,156.128
-0.401,-1.224,0.623,-42.786,5.615,179.626
-0.397,-1.022,0.704,-46.448,-1.465,199.341
-0.382,-0.835,0.761,-50.659,-4.822,214.111
-0.328,-0.597,0.803,-56.580,-3.357,225.891
-0.343,-0.362,0.829,-57.434,-3.601,237.366
-0.332,-0.110,0.891,-54.016,-7.751,244.507
-0.311,0.121,0.957,-46.570,-15.564,247.131
-0.293,0.323,1.039,-41.748,-20.691,245.483
-0.249,0.509,1.086,-44.128,-16.235,237.122
-0.179,0.679,1.068,-50.049,-4.639,223.816
-0.124,0.831,1.031,-58.777,4.395,209.229
-0.066,1.001,0.985,-67.078,10.315,195.740
-0.034,1.143,0.934,-67.261,11.658,182.190
-0.023,1.202,0.940,-66.467,6.592,162.048
0.001,1.204,0.963,-65.918,0.549,139.771
0.028,1.240,0.997,-58.960,-1.587,125.671
0.041,1.308,1.016,-46.143,-2.747,118.164
0.021,1.450,1.018,-25.635,-3.540,112.793
0.042,1.611,1.024,-4.211,-3.723,109.253
0.074,1.846,0.968,3.662,-4.883,98.999
0.112,1.690,1.140,27.405,-16.357,71.045
0.144,1.680,1.132,56.885,-5.920,47.729
0.117,1.793,0.971,20.752,9.766,33.752
0.146,1.850,0.762,11.169,14.709,11.658
0.097,1.808,0.706,-3.357,4.395,-17.822
0.078,1.538,0.791,12.024,-14.709,-53.406
0.056,1.290,0.899,19.714,-22.705,-76.050
0.036,1.150,0.919,18.311,-19.043,-83.069
0.008,1.123,0.866,11.780,-11.230,-83.801
-0.016,1.129,0.754,9.338,-5.554,-86.304
-0.029,1.083,0.694,5.920,-7.507,-96.863
-0.064,0.952,0.721,9.460,-18.250,-111.145
-0.117,0.859,0.809,10.986,-30.945,-119.568
-0.129,0.829,0.921,15.808,-39.917,-123.047
-0.146,0.793,1.026,19.836,-43.884,-127.747
-0.171,0.757,1.077,17.090,-41.199,-134.644
-0.204,0.611,1.166,10.376,-35.583,-143.372
-0.234,0.656,1.077,6.165,-25.146,-144.104
-0.265,0.652,1.129,1.465,-24.841,-143.555
-0.287,0.720,1.104,17.700,-26.489,-145.447
-0.252,0.769,1.126,23.376,-28.931,-152.283
-0.258,0.678,1.195,37.659,-37.170,-166.931
-0.272,0.495,1.250,51.697,-35.950,-184.509
-0.311,0.313,1.284,52.429,-29.846,-197.571
-0.370,0.113,1.281,58.472,-21.423,-203.857
-0.417,-0.051,1.264,55.054,-12.695,-207.031
-0.445,-0.172,1.223,58.716,-3.662,-207.092
-0.467,-0.288,1.156,63.904,3.662,-205.627
-0.466,-0.463,1.123,66.833,11.230,-210.571
-0.444,-0.657,1.071,63.232,21.301,-218.018
-0.414,-0.878,0.973,58.105,32.043,-219.971
-0.424,-1.116,0.877,45.288,39.612,-218.628
-0.433,-1.359,0.779,36.865,44.250,-213.074
-0.435,-1.522,0.676,33.142,45.898,-196.899
-0.421,-1.617,0.608,33.508,42.297,-172.607
-0.400,-1.631,0.621,32.471,30.945,-146.545
-0.368,-1.571,0.714,34.119,13.672,-121.643
-0.319,-1.457,0.822,40.161,-0.732,-99.243
-0.318,-1.287,0.827,36.682,-4.883,-87.402
-0.311,-1.421,0.909,31.982,-7.690,-93.262
-0.284,-1.609,0.935,29.785,0.061,-96.802
-0.256,-1.781,0.884,20.142,17.822,-83.984
-0.308,-1.757,0.733,9.277,36.804,-57.800
-0.262,-1.739,0.562,15.198,46.387,-38.452
-0.226,-1.692,0.458,7.263,43.579,-22.278
-0.203,-1.670,0.412,9.521,30.457,-7.019
-0.189,-1.663,0.431,6.775,16.418,7.019
-0.159,-1.656,0.494,-1.343,7.080,21.118
-0.162,-1.623,0.552,-10.864,2.869,37.781
-0.171,-1.546,0.607,-19.043,2.625,56.519
-0.183,-1.453,0.643,-24.475,2.869,74.463
-0.180,-1.319,0.687,-29.114,3.784,90.759
-0.111,-1.215,0.604,-26.733,7.812,105.591
-0.116,-0.985,0.550,-50.415,8.667,120.117
-0.132,-0.787,0.552,-51.636,-1.587,130.005
-0.132,-0.663,0.662,-36.255,-17.761,131.531
-0.154,-0.634,0.867,-28.381,-35.706,127.625
-0.141,-0.660,1.051,-14.771,-43.640,124.878
-0.156,-0.669,1.150,-11.169,-34.546,127.014
-0.156,-0.653,1.157,-18.982,-15.076,130.981
-0.147,-0.610,1.099,-23.376,3.052,138.855
-0.151,-0.486,1.028,-21.606,14.160,151.245
-0.107,-0.285,0.972,-15.808,19.226,166.199
-0.089,-0.033,0.938,-11.719,18.005,174.744
-0.083,0.166,0.940,-10.010,11.536,174.377
-0.079,0.224,0.994,-5.859,2.014,158.813
-0.080,0.106,1.089,-6.470,-5.859,133.606
-0.079,-0.059,1.158,-7.935,-6.042,117.676
-0.091,-0.104,1.151,-5.859,0.977,120.911
-0.082,0.024,1.081,0.793,8.362,136.841
-0.057,0.201,0.999,8.667,10.681,150.879
-0.029,0.375,0.958,10.986,8.606,154.785
0.013,0.505,0.934,15.564,1.587,150.269
0.034,0.628,0.933,15.930,-3.784,142.822
0.034,0.752,0.968,4.883,-8.118,131.653

-0.085,1.369,1.470,11.841,-44.922,-33.569
-0.095,1.455,1.505,24.536,-31.555,-49.500
-0.122,1.498,1.458,29.175,-12.329,-68.909
-0.119,1.462,1.341,30.396,6.042,-93.018
-0.135,1.347,1.225,30.396,17.822,-119.202
-0.178,1.150,1.141,31.738,22.644,-142.151
-0.175,0.942,1.082,26.978,23.621,-158.020
-0.183,0.856,1.011,23.315,25.452,-165.039
-0.222,0.811,0.933,26.917,26.001,-171.265
-0.222,0.605,0.905,31.006,19.226,-186.646
-0.239,0.407,0.923,22.339,17.273,-197.693
-0.298,0.192,0.977,16.418,15.625,-204.468
-0.310,0.063,0.995,11.780,21.057,-207.520
-0.319,-0.044,0.858,11.719,28.503,-208.496
-0.421,-0.195,0.796,0.183,22.034,-218.628
-0.423,-0.531,0.865,13.733,2.441,-234.619
-0.402,-0.886,0.966,29.602,-9.827,-238.892
-0.390,-1.110,1.027,36.499,-6.104,-224.060
-0.351,-1.195,0.950,40.405,11.902,-198.975
-0.336,-1.162,0.764,25.391,33.142,-177.185
-0.349,-1.196,0.592,1.892,42.847,-169.373
-0.358,-1.345,0.546,-15.503,36.804,-171.570
-0.408,-1.557,0.585,-19.958,19.714,-170.593
-0.483,-1.751,0.707,-16.846,0.427,-160.950
-0.523,-1.912,0.862,-6.531,-15.686,-144.653
-0.525,-2.035,0.984,5.493,-22.949,-124.634
-0.535,-2.135,1.018,11.841,-13.611,-101.501
-0.516,-2.212,0.952,7.935,7.141,-78.613
-0.499,-2.305,0.825,1.160,26.855,-58.777
-0.480,-2.351,0.693,-5.981,40.466,-37.598
-0.471,-2.321,0.581,-12.817,44.617,-10.986
-0.451,-2.234,0.508,-14.771,38.635,16.907
-0.448,-2.125,0.504,-13.245,26.672,41.870
-0.429,-2.025,0.482,-11.536,16.235,63.782
-0.462,-1.931,0.518,-18.494,4.639,84.106
-0.484,-1.852,0.594,-11.108,-7.385,102.844
-0.460,-1.708,0.678,-6.104,-14.587,124.329
-0.443,-1.478,0.737,-3.784,-16.785,148.315
-0.368,-1.180,0.758,-5.615,-15.015,170.715
-0.317,-0.893,0.787,-16.602,-11.414,184.021
-0.283,-0.685,0.825,-31.616,-8.240,186.157
-0.254,-0.559,0.873,-43.091,-5.676,181.946
-0.250,-0.460,0.908,-45.349,-4.517,180.359
-0.248,-0.324,0.932,-43.396,-5.432,185.913
-0.233,-0.128,0.968,-35.583,-9.399,196.777
-0.233,0.089,1.015,-24.780,-15.015,208.496
-0.239,0.282,1.081,-19.775,-16.968,211.975
-0.234,0.395,1.130,-19.287,-14.771,204.590
-0.230,0.417,1.159,-19.897,-8.728,190.918
-0.254,0.388,1.153,-21.790,-1.282,177.185
-0.237,0.387,1.094,-20.874,7.690,169.678
-0.221,0.434,1.012,-18.494,13.855,168.213
-0.222,0.529,0.950,-17.700,14.709,168.945
-0.215,0.615,0.917,-14.465,10.132,165.955
-0.188,0.675,0.926,-11.292,2.869,157.166
-0.147,0.735,0.952,-11.719,-1.465,147.583
-0.104,0.836,0.955,-12.939,-1.282,140.686
-0.063,0.966,0.947,-12.756,0.793,134.583
-0.020,1.069,0.930,-8.972,-0.427,125.366
0.049,1.162,0.922,-6.897,-3.296,112.488
0.136,1.135,0.902,-1.465,-6.958,99.365
0.042,1.208,1.109,-8.118,-13.000,86.975
0.148,1.028,1.060,24.292,-10.803,70.984
0.120,1.227,0.938,-16.296,3.540,67.322
0.131,1.283,0.849,-12.695,-3.235,56.396
0.160,1.262,0.898,2.991,-13.855,40.405
0.143,1.260,0.957,-5.981,-20.447,27.161
0.115,1.247,1.026,-13.123,-24.475,14.832
0.091,1.193,1.129,-7.141,-27.649,1.831
0.059,1.124,1.192,-1.831,-24.719,-10.803
0.051,1.072,1.190,0.671,-16.907,-22.156
0.046,1.032,1.148,6.592,-8.118,-31.433
0.035,0.998,1.080,10.071,-2.014,-39.063
0.039,1.020,1.072,9.949,-0.061,-44.678
0.027,0.958,1.058,18.799,1.099,-54.688
-0.010,0.869,1.049,6.592,4.456,-69.397
-0.038,0.735,1.019,2.075,5.005,-82.581
-0.057,0.649,1.019,4.883,1.343,-87.769
-0.070,0.625,1.046,12.756,-4.150,-87.769
-0.091,0.626,1.078,15.991,-7.996,-89.050
-0.113,0.613,1.089,14.771,-7.324,-93.994
-0.126,0.562,1.086,12.695,-4.211,-102.417
-0.115,0.492,1.070,11.841,-0.671,-110.168
-0.149,0.414,1.051,8.118,2.991,-115.234
-0.122,0.478,0.925,9.338,7.324,-118.774
-0.126,0.320,0.943,15.503,2.563,-132.568
-0.108,0.130,0.944,17.883,-0.610,-142.761
-0.112,-0.039,0.941,15.625,0.854,-144.531
-0.087,-0.196,0.965,17.578,2.625,-142.395
-0.076,-0.129,0.813,19.409,10.681,-134.521
-0.124,-0.168,0.755,15.686,5.005,-135.254
-0.122,-0.366,0.801,19.836,-8.911,-144.775
-0.129,-0.555,0.868,19.531,-16.052,-148.743
-0.153,-0.737,0.943,22.034,-17.517,-144.043
-0.182,-0.906,0.992,24.353,-12.207,-135.498
-0.214,-1.062,0.973,20.020,-3.174,-128.357
-0.243,-1.231,0.962,13.916,-0.732,-121.521
-0.238,-1.353,0.979,14.771,-5.127,-108.459
-0.223,-1.401,1.028,19.226,-10.925,-88.440
-0.200,-1.366,1.084,22.339,-12.451,-66.223

-0.167,-1.190,1.107,19.836,-0.183,-32.471
-0.128,-1.139,1.060,15.869,7.141,-25.269
-0.078,-1.096,0.995,12.390,12.878,-18.860
-0.036,-1.018,0.942,10.010,15.015,-9.705
-0.000,-0.922,0.915,9.521,13.489,-0.549
0.026,-0.813,0.920,9.033,9.827,7.996
0.054,-0.700,0.937,11.658,6.042,15.991
0.084,-0.580,0.939,13.855,4.150,22.278
0.109,-0.465,0.924,11.536,5.798,26.550
0.128,-0.364,0.900,9.155,8.179,28.198
0.140,-0.279,0.880,8.484,8.972,27.710
0.143,-0.229,0.870,6.897,8.118,25.696
0.154,-0.202,0.864,4.822,7.507,22.522
0.158,-0.169,0.854,4.089,6.714,21.484
0.161,-0.117,0.842,5.615,4.944,22.644
0.154,-0.077,0.836,6.653,2.930,22.400
0.149,-0.052,0.843,7.202,0.549,20.264
0.139,-0.038,0.873,7.751,-3.296,18.066
0.129,-0.025,0.914,8.545,-7.568,16.357
0.125,-0.022,0.944,8.179,-8.972,13.672
0.117,-0.034,0.954,5.127,-7.324,9.888
0.107,-0.061,0.953,1.221,-4.578,6.409
0.101,-0.089,0.946,-1.282,-3.174,4.211
0.093,-0.087,0.940,-1.648,-3.235,4.395
0.092,-0.061,0.946,0.183,-5.127,5.615
0.087,-0.043,0.975,2.686,-8.301,5.554
0.086,-0.041,1.007,3.906,-10.742,3.723
0.080,-0.040,1.029,4.089,-10.071,1.648
0.073,-0.038,1.026,3.418,-7.385,0.427
0.064,-0.042,1.018,3.540,-4.822,-0.671
0.055,-0.045,1.024,4.639,-4.639,-1.343
0.053,-0.059,1.049,4.700,-5.615,-2.808
0.055,-0.083,1.060,3.845,-4.456,-4.944
0.060,-0.095,1.053,1.038,-1.099,-6.653
0.062,-0.122,1.033,-0.916,1.343,-8.484
0.060,-0.146,1.026,-0.793,1.343,-8.972
0.056,-0.167,1.031,1.465,0.000,-8.179
0.052,-0.174,1.034,4.211,-0.549,-6.531
0.051,-0.161,1.026,5.737,-0.061,-4.578
0.047,-0.136,1.009,5.798,1.160,-3.174
0.050,-0.136,0.997,4.089,1.953,-4.578
0.053,-0.158,0.989,1.709,2.258,-7.324
0.053,-0.194,0.985,-0.488,2.747,-9.644
0.055,-0.233,0.987,-1.709,3.052,-10.559
0.065,-0.247,0.982,-0.977,3.418,-9.033
0.066,-0.231,0.971,0.549,3.784,-6.348
0.068,-0.215,0.960,0.244,3.601,-4.761
0.070,-0.221,0.953,0.488,2.869,-5.066
0.064,-0.240,0.967,0.427,1.587,-5.127
0.066,-0.256,0.980,1.831,0.366,-4.822
0.067,-0.247,0.983,2.441,0.610,-2.808
0.074,-0.227,0.971,2.686,1.770,-1.343
0.073,-0.214,0.962,0.854,2.869,-1.221
0.076,-0.224,0.963,-1.343,3.113,-2.625
0.079,-0.246,0.971,-2.258,2.869,-3.723
0.078,-0.266,0.976,-1.587,2.930,-3.052
0.079,-0.260,0.963,-0.916,3.662,-1.099
0.084,-0.230,0.939,-0.122,3.906,0.732
0.091,-0.190,0.924,1.038,2.869,1.770
0.088,-0.181,0.941,1.709,0.183,0.671
0.080,-0.215,0.984,1.221,-2.380,-1.465
0.068,-0.256,1.020,0.977,-3.174,-2.625
0.066,-0.253,1.030,2.258,-1.343,-0.854
0.068,-0.210,1.016,3.662,1.587,2.136
0.074,-0.165,1.001,3.723,3.174,3.357
0.078,-0.159,0.990,2.258,4.456,1.160
0.078,-0.196,0.979,0.122,5.615,-2.197
0.082,-0.235,0.963,-0.610,6.165,-3.784
0.088,-0.238,0.946,1.099,5.554,-2.014
0.093,-0.214,0.927,3.052,4.700,0.427
0.094,-0.203,0.909,3.113,3.845,0.732
0.097,-0.218,0.897,1.770,2.686,-0.427
0.096,-0.232,0.909,0.854,1.038,-0.916
0.092,-0.221,0.932,0.793,-1.465,0.427
0.091,-0.195,0.962,0.977,-2.991,2.136
0.088,-0.179,0.983,0.488,-2.747,2.136
0.087,-0.174,0.981,-0.061,-1.221,1.221
0.096,-0.170,0.964,-0.122,0.366,0.488
0.099,-0.172,0.950,-0.061,1.099,-0.061
0.094,-0.179,0.947,0.488,0.000,-0.366
0.087,-0.189,0.959,1.282,-1.404,-0.427
0.084,-0.194,0.978,1.465,-2.686,-0.183
0.077,-0.187,1.001,1.953,-3.235,0.305
0.074,-0.170,1.008,2.075,-2.563,0.732
0.074,-0.160,1.003,1.465,-0.854,0.488
0.079,-0.168,0.990,0.488,1.099,-0.916
0.080,-0.169,0.982,-0.366,1.526,-1.526
0.075,-0.164,0.984,0.183,1.038,-1.343
0.069,-0.181,0.998,0.671,0.244,-2.258
0.077,-0.213,0.997,0.916,0.488,-3.662
0.085,-0.214,0.976,1.343,2.075,-2.747
0.081,-0.193,0.955,1.343,2.625,-0.916
0.104,-0.175,0.936,1.404,2.136,-0.793
0.088,-0.205,0.935,2.563,0.854,-3.174
0.080,-0.241,0.956,0.610,-0.977,-4.333
0.078,-0.244,0.967,0.977,-1.343,-2.380
0.076,-0.219,0.980,0.854,-1.709,0.000
0.070,-0.205,0.985,1.282,-1.221,0.366
0.069,-0.218,0.979,-0.244,0.366,-0.854
0.070,-0.242,0.973,-1.343,1.099,-1.953

