accelerometerX,accelerometerY,accelerometerZ,gyroscopeX,gyroscopeY,gyroscopeZ
-0.870,-0.052,1.965,493.591,-289.429,131.287
-1.051,-0.245,2.210,592.102,-314.270,101.135
-1.125,-0.447,2.452,575.378,-321.045,68.420
-1.145,-0.672,2.656,491.943,-274.292,43.030
-1.183,-0.882,2.749,391.602,-186.646,22.827
-1.245,-1.016,2.704,266.357,-64.697,16.052
-1.316,-1.016,2.546,122.559,76.172,25.574
-1.449,-0.902,2.323,-14.771,214.844,36.560
-1.579,-0.834,2.035,-99.426,328.064,36.560
-1.617,-0.872,1.732,-123.047,404.175,27.039
-1.628,-0.982,1.502,-131.958,449.707,16.846
-1.611,-1.116,1.343,-151.306,476.868,14.038
-1.593,-1.208,1.214,-177.795,499.023,19.287
-1.587,-1.238,1.074,-181.763,522.644,33.020
-1.563,-1.179,0.918,-159.790,547.668,55.176
-1.550,-1.068,0.703,-107.422,571.777,81.299
-1.481,-0.891,0.492,-51.636,584.778,111.938
-1.398,-0.688,0.250,3.174,594.604,142.151
-1.308,-0.454,0.036,60.669,603.333,168.457
-1.157,-0.231,-0.182,128.235,607.056,185.608
-1.013,-0.052,-0.409,176.208,612.427,194.763
-0.994,0.116,-0.611,180.298,625.854,200.378
-0.920,0.291,-0.856,181.396,637.146,200.989
-0.741,0.398,-1.125,168.274,643.677,193.298
-0.632,0.405,-1.398,127.136,640.320,170.532
-0.584,0.376,-1.609,61.157,626.892,136.108
-0.566,0.282,-1.834,24.170,608.215,98.389
-0.520,0.141,-1.993,23.010,590.759,65.125
-0.490,-0.009,-2.206,38.940,544.312,37.354
-0.399,-0.120,-2.416,83.252,471.313,16.296
-0.340,-0.163,-2.554,183.411,382.202,5.615
-0.274,-0.114,-2.650,301.758,277.832,12.207
-0.170,0.038,-2.613,371.704,163.086,33.020
-0.117,0.271,-2.370,377.930,47.791,53.894
-0.080,0.514,-1.975,348.511,-52.795,63.721
-0.022,0.718,-1.573,324.585,-127.808,57.861
0.059,0.865,-1.238,325.073,-173.157,37.109
0.080,0.949,-0.999,337.708,-191.772,3.479
0.112,0.993,-0.854,320.557,-192.871,-35.339
0.136,1.011,-0.843,255.615,-181.152,-74.097
0.125,1.004,-0.874,145.874,-154.907,-108.154
0.107,0.956,-0.983,14.648,-130.005,-140.076
0.067,0.827,-1.114,-92.285,-124.451,-175.659
-0.008,0.664,-1.220,-154.480,-137.634,-212.097
-0.123,0.477,-1.304,-191.650,-167.053,-243.958
-0.234,0.259,-1.336,-220.032,-211.487,-273.010
-0.363,-0.010,-1.312,-230.896,-268.066,-303.040
-0.541,-0.341,-1.232,-237.061,-333.862,-326.111
-0.768,-0.664,-1.063,-270.020,-404.297,-330.750
-1.054,-0.880,-0.800,-322.876,-478.149,-308.716
-1.221,-0.961,-0.444,-346.313,-561.768,-262.939
-1.426,-0.986,-0.057,-295.593,-652.527,-207.703
-1.580,-0.856,0.314,-230.896,-729.797,-150.146
-1.733,-0.613,0.501,-184.814,-786.804,-94.543
-1.635,-0.245,0.820,-134.583,-806.885,-50.415
-1.922,0.058,1.095,-73.975,-826.355,-23.987
-2.136,0.118,1.263,-3.296,-848.450,-53.894
-2.166,0.010,1.433,41.565,-836.060,-130.554
-2.282,-0.197,1.662,33.020,-808.411,-218.262
-2.433,-0.543,1.866,24.170,-774.109,-302.917
-2.515,-1.001,2.195,31.677,-739.014,-370.422
-2.616,-1.464,2.497,41.382,-694.336,-398.743
-2.601,-1.899,2.768,42.847,-642.578,-386.292
-2.464,-2.200,3.108,-3.357,-570.496,-326.355
-2.225,-2.331,3.394,-51.758,-462.769,-222.168
-1.847,-2.252,3.446,-71.899,-316.650,-91.614
-1.583,-1.883,3.036,-64.087,-136.475,48.645
-1.431,-1.327,2.312,-59.021,44.189,168.762
-1.350,-0.843,1.595,-88.989,185.974,243.469
-1.239,-0.457,1.099,-141.357,275.635,270.630
-1.098,-0.151,0.738,-201.904,328.674,260.254
-0.996,0.006,0.438,-246.765,339.355,219.360
-0.884,0.058,0.220,-273.560,332.764,168.640
-0.763,0.020,0.076,-273.987,304.016,120.972
-0.654,-0.026,0.001,-260.437,256.592,81.177
-0.556,-0.052,-0.014,-232.117,198.486,51.208
-0.504,-0.091,0.025,-180.786,133.362,28.381
-0.445,-0.148,0.139,-113.159,65.613,10.803
-0.417,-0.237,0.291,-29.480,-0.488,-1.709
-0.397,-0.316,0.473,53.162,-58.716,-11.841
-0.405,-0.411,0.653,112.183,-102.112,-20.020
-0.404,-0.484,0.820,135.620,-127.319,-23.987
-0.404,-0.544,0.971,138.123,-135.315,-25.879
-0.413,-0.629,1.071,131.042,-129.211,-26.855
-0.428,-0.691,1.143,107.849,-114.807,-22.095
-0.443,-0.707,1.200,74.707,-95.398,-11.108
-0.451,-0.693,1.221,49.927,-69.885,3.357
-0.444,-0.647,1.202,36.865,-39.124,19.592
-0.434,-0.580,1.124,32.410,-7.507,34.241
-0.428,-0.509,1.018,26.123,22.156,45.044
-0.410,-0.437,0.917,10.803,47.546,50.476
-0.411,-0.375,0.820,-4.639,65.918,49.377
-0.413,-0.325,0.747,-16.296,76.599,42.297
-0.407,-0.289,0.689,-18.311,78.918,30.151
-0.405,-0.281,0.654,-9.766,73.730,14.832
-0.389,-0.294,0.633,1.465,63.293,-1.648
-0.378,-0.341,0.619,9.277,51.147,-17.395
-0.387,-0.401,0.623,5.432,40.833,-31.006
-0.417,-0.455,0.653,-8.057,33.691,-40.466
-0.431,-0.486,0.690,-16.785,27.893,-47.363

-1.257,-0.378,1.479,431.458,92.712,-138.733
-1.441,-0.614,1.591,409.973,116.089,-196.655
-1.612,-0.964,1.633,357.544,181.702,-260.193
-1.952,-1.213,1.588,255.249,293.213,-311.340
-2.062,-1.359,1.441,119.141,441.956,-337.646
-2.301,-1.462,1.123,-11.475,597.046,-347.778
-2.795,-1.418,0.804,-115.417,733.459,-350.098
-3.187,-1.318,0.488,-153.564,837.402,-347.717
-3.608,-1.332,0.117,-104.370,924.133,-336.060
-3.618,-1.336,-0.374,-59.265,1005.737,-310.303
-3.388,-1.332,-0.769,-128.113,1060.242,-299.805
-3.090,-1.436,-1.060,-247.559,1067.749,-324.463
-2.706,-1.641,-1.309,-289.001,1031.982,-361.328
-2.222,-1.858,-1.527,-213.806,965.515,-370.911
-1.742,-2.017,-1.656,-71.106,867.371,-332.397
-1.210,-2.113,-1.908,44.556,710.693,-251.160
-0.753,-2.127,-1.989,78.430,532.898,-149.658
-0.438,-1.971,-1.810,38.635,338.928,-37.231
-0.244,-1.645,-1.412,29.602,139.771,61.035
-0.185,-1.331,-1.018,131.531,-41.016,122.559
-0.250,-1.057,-0.627,283.325,-195.557,147.949
-0.195,-0.878,-0.331,416.931,-327.759,147.766
-0.209,-0.692,-0.084,522.339,-428.589,126.404
-0.235,-0.599,0.307,603.516,-483.276,85.938
-0.235,-0.640,0.554,659.058,-489.929,26.489
-0.110,-0.826,0.775,659.363,-463.379,-35.339
0.007,-1.080,0.946,582.031,-385.132,-77.393
0.067,-1.286,1.052,431.580,-280.273,-85.083
0.095,-1.352,1.091,235.291,-165.283,-58.899
0.085,-1.265,1.014,54.504,-52.002,-16.541
0.043,-1.082,0.793,-55.481,47.729,20.325
0.019,-0.932,0.502,-94.421,125.244,40.161
0.040,-0.843,0.233,-100.342,173.157,42.358
0.050,-0.820,-0.009,-99.915,190.552,32.227
0.045,-0.849,-0.203,-89.966,183.228,15.442
0.056,-0.888,-0.347,-70.984,159.912,0.549
0.094,-0.912,-0.436,-44.373,126.099,-5.066
0.119,-0.915,-0.485,-12.207,81.848,-0.488
0.139,-0.880,-0.477,7.324,34.119,10.498
0.125,-0.812,-0.403,9.644,-6.104,21.423
0.118,-0.746,-0.306,11.047,-34.912,25.452
0.116,-0.709,-0.213,17.273,-52.734,21.118
0.109,-0.711,-0.133,23.987,-62.378,9.766
0.094,-0.748,-0.098,27.039,-63.721,-4.150
0.087,-0.794,-0.096,16.541,-56.519,-16.602
0.057,-0.850,-0.133,-4.395,-44.067,-25.818
-0.020,-0.902,-0.207,-31.494,-31.128,-32.288
-0.070,-0.924,-0.282,-69.397,-20.508,-34.851
-0.096,-0.932,-0.364,-103.027,-12.207,-34.119
-0.140,-0.942,-0.441,-128.296,-6.287,-31.982
-0.163,-0.958,-0.492,-153.931,-3.052,-29.114
-0.193,-0.994,-0.548,-162.659,-3.906,-29.236
-0.258,-1.033,-0.606,-159.851,-7.874,-29.053
-0.318,-1.068,-0.654,-159.607,-17.273,-23.560
-0.346,-1.065,-0.682,-167.786,-34.668,-12.085
-0.433,-1.065,-0.673,-179.932,-61.646,-0.610
-0.518,-1.075,-0.644,-189.026,-95.215,14.954
-0.653,-1.118,-0.598,-185.242,-131.897,36.072
-0.832,-1.183,-0.520,-175.293,-170.776,60.669
-0.985,-1.272,-0.468,-160.461,-210.937,86.060
-1.105,-1.335,-0.424,-150.330,-256.042,110.535
-1.286,-1.344,-0.343,-159.058,-311.096,142.700
-1.511,-1.296,-0.231,-176.514,-370.728,183.838
-1.627,-1.238,-0.142,-179.016,-428.894,229.736
-1.828,-1.160,-0.033,-171.021,-485.535,277.649
-2.074,-1.039,0.119,-166.748,-535.889,325.378
-2.075,-0.947,0.278,-163.391,-584.778,372.192
-2.234,-0.870,0.475,-150.696,-625.793,401.001
-2.431,-0.790,0.685,-138.062,-655.579,417.786
-2.498,-0.710,0.912,-111.572,-680.725,436.035
-2.640,-0.600,1.105,-52.734,-709.167,453.979
-2.785,-0.498,1.268,45.471,-729.004,466.492
-2.766,-0.416,1.364,161.804,-742.371,467.346
-2.717,-0.338,1.456,261.963,-747.925,454.468
-2.495,-0.235,1.530,326.416,-741.333,423.950
-2.305,-0.119,1.651,359.802,-712.585,371.399
-2.140,-0.040,1.816,374.695,-664.062,292.053
-1.944,-0.045,2.016,380.310,-596.375,193.054
-1.656,-0.196,2.121,390.076,-511.414,86.792
-1.404,-0.493,2.115,372.314,-389.648,-12.451
-1.223,-0.774,1.996,262.390,-232.727,-78.125
-1.159,-0.856,1.766,52.551,-65.186,-102.417
-1.121,-0.884,1.435,-175.537,90.332,-108.887
-0.953,-0.768,1.200,-357.300,214.844,-108.276
-0.865,-0.599,0.872,-415.894,308.105,-123.108
-1.063,-0.632,0.573,-395.691,379.150,-173.950
-0.950,-0.713,0.272,-420.898,394.348,-223.938
-0.919,-0.837,0.075,-451.111,378.723,-260.498
-0.882,-0.975,-0.005,-445.007,334.167,-288.635
-0.864,-1.138,-0.020,-394.653,269.653,-301.331
-0.829,-1.314,-0.021,-278.870,200.500,-289.978
-0.778,-1.491,-0.052,-138.000,134.460,-251.343
-0.731,-1.634,-0.092,-29.297,75.623,-190.186
-0.701,-1.684,-0.084,11.536,22.644,-111.511
-0.715,-1.582,0.042,4.028,-27.405,-24.353
-0.674,-1.379,0.197,15.259,-72.388,58.838
-0.662,-1.174,0.296,63.354,-110.535,121.643
-0.685,-0.967,0.412,96.802,-141.846,159.058
-0.689,-0.787,0.511,116.272,-162.842,176.941
-0.666,-0.648,0.606,124.817,-175.293,179.321

-1.038,-1.009,0.790,140.747,-85.205,-11.902
-1.141,-0.980,0.997,205.444,-140.869,-1.404
-1.226,-1.006,1.172,279.907,-172.974,-1.953
-1.197,-1.083,1.311,341.736,-169.312,-11.292
-1.118,-1.175,1.390,348.938,-123.779,-17.395
-1.205,-1.197,1.451,297.363,-40.955,-16.479
-1.126,-1.139,1.533,210.205,68.726,-18.127
-1.234,-1.265,1.409,121.033,194.092,-43.518
-1.406,-1.415,1.309,-49.255,317.383,-86.365
-1.760,-1.603,1.285,-257.202,425.293,-149.658
-2.206,-1.861,1.250,-408.569,506.287,-227.905
-2.727,-2.176,1.261,-485.291,559.570,-310.486
-3.111,-2.538,1.210,-481.567,599.304,-377.075
-3.373,-2.798,1.118,-475.220,640.442,-393.066
-3.427,-2.917,1.077,-464.294,687.927,-339.355
-3.294,-2.856,0.914,-383.789,749.512,-229.553
-3.183,-2.600,0.533,-234.192,824.036,-66.711
-3.148,-2.188,0.080,-82.764,891.174,123.535
-3.085,-1.632,-0.303,6.714,934.387,311.707
-2.913,-1.051,-0.611,61.340,958.740,480.530
-2.825,-0.527,-0.826,108.398,963.623,613.953
-2.790,-0.071,-1.075,141.235,967.834,707.581
-2.714,0.336,-1.356,133.362,981.079,768.188
-2.753,0.621,-1.607,50.354,995.544,795.044
-2.801,0.901,-1.798,-124.634,1006.897,782.043
-2.712,1.056,-1.920,-336.060,1017.395,723.816
-2.391,1.074,-2.085,-533.264,1020.203,614.502
-2.009,0.944,-2.296,-713.013,979.675,461.731
-1.480,0.747,-2.299,-856.995,895.508,295.410
-1.045,0.514,-2.239,-933.472,770.874,153.320
-0.634,0.283,-2.199,-900.879,641.235,43.762
-0.281,0.055,-2.177,-787.537,516.479,-34.790
-0.066,0.043,-2.141,-630.859,394.958,-84.473
0.021,-0.202,-2.471,-64.819,281.433,-142.639
0.037,-0.218,-2.617,397.583,142.273,-130.310
0.117,-0.072,-2.217,73.608,33.752,-67.383
0.181,0.009,-1.803,-57.373,-71.960,-31.494
0.316,0.127,-1.430,-8.240,-151.062,-16.846
0.414,0.155,-1.083,66.467,-198.914,-16.113
0.462,0.097,-0.761,173.157,-225.403,-28.931
0.440,0.019,-0.608,247.559,-248.535,-43.579
0.425,-0.039,-0.536,268.127,-244.263,-44.434
0.443,-0.063,-0.441,271.790,-181.641,-33.813
0.589,-0.105,-0.477,280.884,-139.160,-20.691
0.673,-0.101,-0.540,259.094,-111.389,-1.648
0.629,-0.032,-0.590,206.421,-94.421,18.860
0.545,0.084,-0.636,158.630,-85.266,40.344
0.467,0.216,-0.683,143.616,-82.764,60.913
0.480,0.348,-0.732,141.663,-82.458,76.660
0.509,0.493,-0.736,133.057,-85.999,82.703
0.509,0.630,-0.703,130.920,-94.849,78.491
0.491,0.736,-0.652,152.527,-106.079,63.538
0.482,0.807,-0.594,191.895,-116.760,40.527
0.474,0.844,-0.540,243.347,-125.549,12.024
0.454,0.844,-0.500,302.490,-131.592,-20.691
0.423,0.822,-0.461,352.173,-136.780,-53.833
0.386,0.755,-0.451,381.714,-138.367,-83.801
0.366,0.677,-0.441,380.554,-134.277,-108.215
0.375,0.617,-0.410,349.243,-128.113,-124.451
0.369,0.584,-0.368,303.345,-123.962,-132.690
0.350,0.580,-0.340,268.005,-120.178,-135.498
0.319,0.603,-0.343,242.737,-115.967,-133.362
0.275,0.668,-0.365,209.412,-112.488,-127.625
0.226,0.754,-0.398,171.448,-111.755,-121.338
0.164,0.847,-0.454,144.653,-114.929,-117.554
0.116,0.943,-0.535,129.028,-124.451,-119.141
0.080,1.036,-0.616,117.371,-141.846,-129.639
0.040,1.098,-0.673,100.769,-168.640,-154.175
-0.050,1.121,-0.697,77.148,-204.163,-196.655
-0.156,1.077,-0.683,46.143,-245.300,-251.709
-0.347,1.008,-0.591,1.221,-289.429,-311.218
-0.549,0.913,-0.456,-35.645,-335.937,-369.751
-0.821,0.775,-0.332,-37.354,-377.380,-431.885
-1.098,0.604,-0.286,-9.094,-409.607,-499.023
-1.173,0.398,-0.266,7.507,-434.998,-571.350
-1.855,0.096,-0.179,33.203,-452.759,-649.841
-2.162,-0.326,-0.102,114.014,-473.206,-724.670
-2.762,-0.705,-0.052,187.439,-493.774,-779.297
-2.737,-1.124,-0.069,174.988,-493.774,-817.505
-2.749,-1.584,-0.084,113.342,-487.305,-819.458
-2.716,-1.957,-0.011,-11.108,-505.432,-776.672
-2.507,-2.143,0.197,-152.893,-555.725,-689.575
-2.563,-2.092,0.605,-210.693,-619.751,-578.003
-2.635,-2.174,0.929,-175.903,-674.072,-477.112
-2.347,-2.498,1.302,-153.931,-744.812,-394.165
-2.403,-2.568,1.903,-215.393,-847.656,-303.284
-2.939,-2.376,2.566,-272.095,-940.674,-193.054
-3.192,-2.248,3.248,-198.120,-979.736,-99.609
-3.205,-2.330,3.607,26.062,-968.384,-27.954
-2.938,-2.457,3.770,284.241,-869.019,39.917
-2.287,-2.542,3.699,452.209,-677.002,110.901
-1.823,-2.203,3.306,441.895,-424.500,201.782
-1.586,-1.370,2.781,271.973,-153.870,304.687
-1.534,-0.632,2.129,106.873,95.947,384.766
-1.571,-0.187,1.437,-1.709,300.598,407.959
-1.509,-0.030,0.872,-101.257,448.059,377.197
-1.416,0.043,0.376,-219.116,526.611,305.176
-1.237,0.021,0.084,-324.402,551.392,208.069
-1.041,-0.080,-0.114,-373.474,534.302,100.037
-0.876,-0.243,-0.238,-362.183,478.088,0.671

-0.574,-1.192,0.889,-51.270,-30.640,-29.907
-0.604,-1.185,0.874,-52.612,-7.324,4.456
-0.606,-1.109,0.810,-53.955,19.409,47.058
-0.583,-0.990,0.696,-48.340,43.335,88.684
-0.551,-0.860,0.584,-46.021,58.899,122.375
-0.509,-0.756,0.496,-48.767,65.063,142.578
-0.480,-0.705,0.427,-49.072,62.866,148.254
-0.445,-0.721,0.374,-53.467,53.406,144.104
-0.406,-0.801,0.346,-70.923,40.344,135.376
-0.388,-0.955,0.361,-106.934,27.039,126.526
-0.438,-1.095,0.444,-169.250,17.334,121.521
-0.456,-1.306,0.500,-224.182,10.559,121.643
-0.413,-1.571,0.560,-276.245,12.939,121.887
-0.473,-1.796,0.705,-346.619,20.447,127.747
-0.593,-2.015,0.875,-382.751,20.752,153.137
-0.870,-2.148,1.106,-371.399,20.264,201.904
-1.076,-2.254,1.259,-310.364,32.166,278.625
-1.226,-2.218,1.351,-220.764,56.824,385.559
-1.358,-1.995,1.432,-125.305,90.698,509.216
-1.819,-1.646,1.278,-35.339,122.986,642.395
-1.665,-1.054,1.076,-67.017,142.517,762.085
-1.589,-0.168,1.098,-147.400,152.466,851.501
-1.903,0.667,1.077,-88.318,157.349,841.797
-1.754,1.266,0.937,70.190,150.818,783.081
-1.415,1.618,0.598,211.548,132.141,702.332
-1.170,1.907,0.495,144.775,104.309,595.947
-0.861,2.009,0.303,-84.961,85.388,467.834
-0.561,2.191,0.351,-334.473,84.595,316.345
-0.507,1.941,0.376,-425.171,84.167,150.574
-0.403,1.401,0.333,-335.999,69.946,-13.306
-0.120,0.802,0.338,-230.469,37.964,-128.967
-0.266,0.307,0.456,-163.147,-3.723,-192.627
-0.139,-0.019,0.563,-123.230,-43.274,-210.693
-0.096,-0.280,0.692,-76.599,-76.843,-194.824
-0.125,-0.466,0.815,-35.095,-101.501,-159.363
-0.118,-0.565,0.957,-21.362,-116.638,-109.253
0.001,-0.547,1.115,-27.100,-121.033,-51.575
0.016,-0.457,1.251,-11.230,-109.192,-0.488
-0.236,-0.344,1.321,31.128,-83.862,38.269
0.173,-0.331,1.185,59.021,-44.006,73.181
0.220,-0.150,1.067,2.014,-7.507,95.581
0.167,0.107,1.161,-57.434,9.399,106.689
0.287,0.289,1.143,-34.485,24.109,88.867
0.206,0.409,0.990,21.362,42.847,46.326
0.237,0.378,0.807,73.547,40.588,-2.625
0.219,0.255,0.725,84.595,19.775,-43.152
0.180,0.093,0.775,49.133,-7.751,-74.219
0.279,-0.075,0.905,15.869,-31.738,-90.454
0.244,-0.225,1.059,3.418,-45.898,-96.619
0.241,-0.355,1.161,4.639,-46.631,-93.689
0.236,-0.439,1.215,6.653,-36.438,-79.468
0.234,-0.476,1.196,10.010,-18.860,-58.289
0.174,-0.459,1.122,7.751,-2.625,-32.837
0.161,-0.364,1.074,4.333,6.592,-6.348
0.162,-0.313,0.995,29.114,11.353,14.343
0.158,-0.248,0.950,41.443,11.169,27.710
0.132,-0.156,0.961,26.428,7.263,35.461
0.113,-0.095,0.970,15.503,4.517,34.119
0.069,-0.061,0.973,12.573,2.319,26.123
0.019,-0.040,0.983,12.085,-0.061,17.334
-0.036,-0.028,0.983,18.799,-1.099,8.362
-0.099,-0.016,0.963,33.508,-0.610,0.916
-0.152,0.004,0.948,46.387,-2.136,-4.883
-0.184,0.069,0.997,39.490,-13.672,-8.362
-0.238,0.183,1.135,26.855,-35.889,-11.169
-0.328,0.286,1.316,53.955,-63.721,-18.860
-0.488,0.366,1.495,140.015,-88.379,-34.729
-0.741,0.468,1.678,267.639,-109.131,-50.720
-1.057,0.553,1.846,420.898,-124.207,-64.758
-1.482,0.658,2.064,573.425,-135.010,-84.106
-1.889,0.990,2.552,664.612,-152.222,-117.371
-2.501,1.108,3.383,724.182,-167.908,-206.665
-3.462,0.296,3.994,812.256,-111.267,-387.390
-3.945,-1.087,4.000,768.005,96.558,-577.087
-4.000,-2.214,3.506,463.135,473.206,-664.124
-4.000,-2.510,2.301,10.315,912.476,-650.940
-4.000,-2.354,1.115,-304.749,1264.771,-631.592
-4.000,-2.337,0.377,-382.080,1466.919,-645.203
-4.000,-2.370,-0.228,-342.651,1493.652,-655.273
-4.000,-2.589,-0.742,-205.322,1442.444,-623.413
-4.000,-2.787,-1.309,-28.198,1345.215,-518.677
-3.782,-2.669,-1.825,20.203,1253.418,-364.075
-3.043,-2.336,-2.143,8.484,1190.063,-205.994
-2.475,-2.023,-2.281,-1.770,1117.432,-79.163
-1.953,-1.748,-2.492,-0.488,983.826,-6.531
-1.466,-1.495,-2.577,-1.892,842.529,24.780
-0.928,-1.305,-2.561,21.912,686.340,29.541
-0.465,-1.192,-2.475,74.829,511.536,21.240
-0.159,-1.135,-2.311,148.010,334.473,2.502
0.054,-1.157,-2.112,235.657,175.537,-18.677
0.159,-1.238,-1.880,314.514,45.593,-29.846
0.240,-1.314,-1.622,348.816,-57.800,-23.804
0.291,-1.337,-1.345,345.032,-142.212,-1.160
0.328,-1.309,-1.025,321.411,-213.379,32.898
0.362,-1.226,-0.705,289.490,-279.297,71.716
0.367,-1.094,-0.426,273.926,-338.684,106.812
0.443,-0.979,-0.193,280.457,-372.559,136.047
0.441,-0.866,0.065,294.067,-357.239,157.898
0.516,-0.740,0.247,302.979,-343.994,175.049
0.581,-0.604,0.397,297.974,-310.242,188.171

-1.411,0.074,-2.502,112.183,612.610,102.356
-2.113,-0.067,-2.705,9.705,699.646,104.553
-1.897,-0.236,-3.044,-36.682,629.333,68.298
-1.427,-0.249,-3.481,29.968,487.000,9.949
-0.637,-0.200,-3.990,328.979,221.497,-70.374
-0.590,-0.075,-3.934,585.449,-153.687,-174.622
-1.235,-0.024,-2.938,454.163,-487.244,-303.040
-1.932,-0.070,-1.684,168.091,-730.408,-442.932
-2.457,-0.299,-0.658,103.638,-891.846,-573.364
-2.797,-0.781,-0.033,253.540,-971.008,-696.594
-2.623,-1.412,0.237,376.160,-979.065,-794.250
-2.414,-2.073,0.365,334.351,-971.375,-833.252
-2.346,-2.532,0.634,113.220,-997.131,-781.067
-2.376,-2.658,1.200,-161.926,-1055.664,-646.423
-2.566,-2.574,1.822,-296.875,-1114.441,-467.712
-2.776,-2.424,2.337,-252.075,-1171.082,-294.617
-2.809,-2.257,2.828,-89.111,-1156.982,-151.184
-2.462,-2.153,3.155,151.184,-1097.534,-56.885
-1.957,-2.210,3.257,412.415,-968.262,-11.353
-1.406,-2.263,3.166,560.242,-779.236,12.817
-0.976,-2.081,2.961,519.409,-560.120,45.959
-0.649,-1.656,2.687,331.848,-333.679,88.074
-0.407,-1.208,2.289,112.732,-114.014,117.859
-0.316,-0.915,1.726,-50.720,81.238,111.938
-0.292,-0.852,1.127,-136.719,229.004,72.876
-0.301,-0.939,0.742,-180.237,320.007,18.311
-0.292,-1.123,0.271,-205.200,336.060,-35.522
-0.204,-1.330,0.046,-218.689,298.401,-70.190
-0.135,-1.488,-0.088,-201.660,238.403,-74.829
-0.052,-1.572,-0.184,-160.400,168.518,-51.636
-0.006,-1.562,-0.228,-117.004,101.318,-7.690
0.004,-1.417,-0.187,-94.910,41.931,46.082
0.039,-1.191,-0.084,-84.229,-7.324,97.229
0.062,-0.944,0.070,-76.721,-46.814,133.972
0.063,-0.704,0.264,-66.650,-78.735,150.696
0.091,-0.524,0.442,-43.518,-104.736,146.729
0.105,-0.422,0.605,-15.686,-119.446,126.099
0.104,-0.370,0.758,2.258,-121.765,95.886
0.113,-0.395,0.867,18.921,-112.671,61.890
0.096,-0.471,0.939,28.809,-93.872,30.640
0.076,-0.532,0.984,22.217,-71.167,6.165
0.081,-0.588,0.968,13.428,-44.006,-9.949
0.124,-0.625,0.887,2.502,-10.498,-20.569
0.160,-0.664,0.752,-13.977,25.208,-27.100
0.142,-0.697,0.628,-37.781,54.443,-33.142
0.128,-0.749,0.520,-49.133,68.420,-39.978
0.110,-0.834,0.437,-38.757,67.139,-45.166
0.085,-0.894,0.405,-27.710,52.429,-45.227
0.066,-0.945,0.394,-6.714,30.884,-40.100
0.055,-0.973,0.386,28.076,8.057,-29.968
0.040,-0.956,0.399,56.396,-12.451,-14.526
0.014,-0.892,0.448,68.420,-28.931,4.578
-0.013,-0.798,0.516,67.444,-39.856,24.475
-0.036,-0.684,0.595,62.744,-46.082,39.917
-0.070,-0.574,0.673,59.814,-47.913,48.035
-0.099,-0.489,0.749,64.209,-45.532,47.974
-0.144,-0.453,0.803,77.454,-39.429,42.175
-0.168,-0.443,0.866,82.153,-30.090,32.288
-0.202,-0.441,0.941,84.595,-17.456,20.691
-0.253,-0.443,1.004,102.478,-2.014,8.240
-0.306,-0.433,1.077,135.986,15.564,-0.671
-0.346,-0.417,1.138,174.805,34.119,-5.493
-0.456,-0.390,1.185,212.219,58.044,-8.118
-0.641,-0.268,1.247,235.718,86.975,-3.479
-0.800,-0.039,1.275,246.887,114.990,13.367
-0.883,0.288,1.280,256.775,145.935,35.339
-1.125,0.699,1.332,262.085,185.242,51.819
-1.372,1.134,1.437,278.564,236.389,49.255
-1.405,1.434,1.438,332.153,320.923,5.920
-1.355,1.418,1.130,379.456,459.961,-87.402
-1.680,1.066,0.458,290.710,640.625,-220.642
-2.033,0.511,-0.226,-2.930,805.725,-377.930
-2.454,-0.136,-0.681,-312.683,906.738,-581.299
-3.086,-0.947,-0.903,-414.062,904.480,-813.538
-3.631,-1.864,-1.116,-280.090,814.758,-995.483
-3.685,-2.932,-1.450,-94.788,685.669,-1069.275
-3.375,-3.850,-1.652,-67.627,527.832,-1016.541
-2.838,-4.000,-1.560,-143.188,384.949,-874.207
-2.314,-4.000,-1.400,-126.526,243.164,-672.119
-1.882,-4.000,-1.244,-33.081,120.667,-428.467
-1.613,-3.948,-0.943,24.658,21.545,-166.260
-1.437,-3.195,-0.586,53.833,-59.143,70.984
-1.392,-2.401,-0.257,71.472,-131.897,260.254
-1.315,-1.640,0.053,76.843,-196.716,395.691
-1.222,-0.975,0.215,84.534,-237.976,472.046
-1.100,-0.386,0.462,94.971,-236.816,495.178
-0.831,0.093,0.587,104.492,-228.638,468.628
-0.602,0.437,0.687,104.858,-197.205,393.372
-0.382,0.608,0.730,90.271,-145.325,277.954
-0.253,0.609,0.727,55.359,-74.951,138.977
-0.255,0.311,0.589,25.024,4.395,-1.160
-0.306,-0.124,0.395,-14.771,80.200,-119.507
-0.403,-0.533,0.204,-60.364,145.630,-199.646
-0.512,-0.891,-0.016,-80.872,189.819,-240.601
-0.569,-1.164,-0.182,-96.741,205.383,-246.826
-0.578,-1.406,-0.332,-94.727,190.613,-222.839
-0.579,-1.580,-0.458,-72.754,155.212,-173.462
-0.563,-1.642,-0.526,-55.420,106.995,-106.873
-0.582,-1.583,-0.509,-40.405,49.255,-33.264
-0.601,-1.409,-0.417,-14.404,-13.672,36.560

-0.846,-1.951,0.609,-19.653,19.104,-133.301
-1.085,-2.481,0.695,-52.856,26.367,-182.373
-1.433,-3.070,0.743,-115.417,49.561,-216.858
-2.010,-3.590,0.801,-199.158,85.327,-214.722
-2.531,-3.970,0.896,-289.246,119.019,-161.377
-2.982,-4.000,1.094,-348.328,146.301,-48.584
-3.418,-4.000,1.165,-297.546,188.538,127.075
-3.879,-3.762,0.907,-177.795,269.531,350.403
-4.000,-3.190,0.493,-113.342,387.146,585.632
-4.000,-2.320,0.147,-129.456,517.151,811.218
-4.000,-1.320,-0.033,-129.028,618.042,1025.391
-4.000,-0.372,-0.177,-17.456,649.658,1214.844
-4.000,0.487,-0.249,186.096,594.238,1374.390
-4.000,1.071,-0.200,384.705,472.290,1502.136
-4.000,1.545,-0.134,468.994,317.688,1573.853
-4.000,2.043,0.016,403.992,184.998,1583.557
-4.000,2.574,0.215,258.301,93.079,1519.897
-3.404,2.984,0.348,112.793,49.438,1387.390
-2.566,3.214,0.347,-14.709,55.237,1212.708
-1.660,3.363,0.224,-136.780,102.844,1009.338
-0.866,3.330,0.005,-205.261,160.461,786.377
-0.382,3.161,-0.205,-193.909,189.819,551.453
-0.112,2.847,-0.366,-95.215,198.120,337.219
-0.049,2.375,-0.477,75.195,175.964,152.649
-0.001,1.853,-0.557,223.999,125.183,5.310
0.077,1.386,-0.577,260.986,67.139,-94.971
0.180,1.023,-0.545,192.505,12.573,-150.818
0.292,0.745,-0.450,88.135,-37.109,-171.692
0.378,0.541,-0.299,24.231,-83.679,-170.532
0.428,0.374,-0.127,35.583,-123.901,-155.518
0.502,0.233,0.051,97.046,-155.579,-130.920
0.548,0.110,0.233,166.199,-180.298,-101.257
0.585,0.020,0.412,214.172,-199.280,-69.824
0.592,-0.025,0.589,233.276,-209.229,-37.354
0.558,-0.013,0.766,227.966,-205.933,-4.395
0.563,0.068,0.928,208.008,-188.110,28.748
0.567,0.177,1.031,192.688,-156.433,55.786
0.526,0.299,1.082,170.166,-115.601,72.205
0.497,0.426,1.074,142.212,-75.439,77.393
0.462,0.529,1.032,132.812,-39.368,74.463
0.443,0.576,0.982,149.902,-13.184,63.416
0.491,0.544,0.914,180.115,3.357,43.945
0.566,0.459,0.843,201.294,17.334,21.118
0.568,0.352,0.767,210.449,28.259,-0.977
0.535,0.256,0.697,211.304,31.860,-20.264
0.493,0.194,0.642,206.360,29.053,-33.508
0.556,0.138,0.614,189.880,23.437,-40.283
0.591,0.078,0.621,167.480,19.226,-43.701
0.547,0.033,0.648,161.621,17.212,-46.692
0.473,-0.005,0.683,171.814,15.991,-47.241
0.388,-0.065,0.708,179.382,12.329,-43.030
0.336,-0.191,0.676,162.354,6.287,-30.029
0.320,-0.263,0.671,103.149,-4.028,-0.366
0.310,-0.225,0.719,28.992,-18.494,35.950
0.345,-0.151,0.782,-29.297,-29.175,59.998
0.388,-0.096,0.831,-67.200,-31.128,70.984
0.375,-0.063,0.867,-81.482,-25.085,74.829
0.305,-0.028,0.900,-81.543,-13.855,77.881
0.237,0.035,0.927,-83.984,-0.671,85.327
0.177,0.118,0.948,-79.895,13.367,96.802
0.075,0.211,0.971,-54.199,27.283,112.793
-0.066,0.329,1.005,-18.799,40.771,132.629
-0.249,0.535,1.104,1.648,54.077,158.264
-0.340,0.780,1.246,-8.484,70.313,192.932
-0.523,1.100,1.444,-22.827,95.215,226.746
-0.499,1.495,1.726,6.042,136.963,259.766
-1.047,1.887,2.021,80.688,188.904,293.945
-1.123,2.731,2.331,159.363,256.653,297.302
-1.448,3.983,2.756,72.876,358.398,238.220
-1.758,3.764,2.318,10.376,503.906,91.370
-1.897,3.058,1.392,-28.259,665.100,-59.326
-1.985,2.810,0.476,-18.860,796.814,-152.466
-2.096,2.573,-0.584,114.197,888.611,-224.487
-2.300,2.387,-1.498,168.030,946.960,-299.377
-2.465,2.168,-1.960,68.298,944.458,-400.269
-2.599,1.779,-2.171,11.902,870.422,-524.353
-2.618,1.283,-2.243,4.944,739.807,-642.090
-2.550,0.745,-2.150,26.733,641.235,-734.314
-2.500,0.204,-1.995,71.777,559.753,-788.879
-2.389,-0.276,-1.893,94.604,499.939,-807.129
-2.250,-0.644,-1.888,60.120,461.243,-788.818
-2.023,-0.924,-1.898,-47.363,421.509,-755.066
-1.678,-1.219,-1.931,-177.063,370.056,-733.765
-1.435,-1.532,-1.926,-301.270,309.021,-739.685
-1.423,-1.964,-1.820,-390.503,229.675,-759.521
-1.573,-2.517,-1.565,-421.631,128.845,-785.767
-1.726,-3.122,-1.238,-381.165,22.339,-799.561
-1.804,-3.670,-0.851,-319.336,-70.435,-763.428
-1.640,-4.000,-0.492,-260.437,-146.362,-664.978
-1.372,-4.000,-0.244,-195.374,-197.571,-505.981
-1.028,-3.999,0.082,-123.474,-190.857,-297.058
-0.852,-3.510,0.168,-39.001,-128.357,-77.942
-0.731,-2.694,0.103,-13.733,-61.951,109.924
-0.671,-1.887,-0.033,-40.588,8.179,239.746
-0.580,-1.308,-0.232,-32.715,70.740,307.434
-0.504,-0.856,-0.444,-13.855,114.258,325.439
-0.363,-0.502,-0.635,-2.808,133.606,305.664
-0.223,-0.275,-0.807,16.113,132.263,260.498
-0.076,-0.152,-0.945,30.151,115.601,200.378
0.010,-0.113,-1.026,27.466,89.050,133.423

-0.823,-2.639,0.077,-225.830,9.399,-207.153
-1.221,-3.092,0.361,-275.635,-14.038,-232.605
-1.660,-3.409,0.699,-339.050,-24.231,-233.887
-1.996,-3.744,0.947,-360.229,0.122,-201.904
-2.291,-4.000,1.027,-349.670,78.125,-132.874
-2.746,-4.000,1.052,-402.527,218.567,-13.123
-3.295,-4.000,0.904,-493.042,404.053,130.371
-3.825,-3.544,0.461,-569.763,625.000,279.907
-4.000,-2.836,-0.179,-546.936,843.994,415.710
-4.000,-2.232,-0.676,-449.524,1010.193,528.137
-4.000,-1.613,-0.987,-399.536,1110.962,622.864
-4.000,-1.079,-1.259,-382.751,1158.813,686.523
-4.000,-0.645,-1.461,-336.853,1171.692,725.220
-3.733,-0.294,-1.682,-261.902,1157.166,745.728
-3.393,0.010,-1.961,-165.405,1116.577,751.831
-3.141,0.187,-2.190,-77.576,1074.280,753.723
-2.788,0.413,-2.497,-35.645,993.408,734.253
-2.288,0.615,-2.732,-31.799,888.855,693.054
-1.843,0.808,-2.906,-54.993,758.606,640.869
-1.495,0.982,-3.039,-65.735,619.202,583.984
-1.148,1.152,-3.101,-52.185,472.534,524.597
-0.771,1.308,-3.059,-38.330,318.115,458.191
-0.419,1.424,-2.871,-27.100,157.654,378.296
-0.168,1.478,-2.480,-2.686,-1.770,282.532
0.037,1.379,-1.978,61.157,-144.409,174.744
0.182,1.218,-1.460,141.968,-256.226,64.819
0.246,0.998,-1.001,224.548,-334.656,-37.598
0.279,0.753,-0.539,296.448,-382.874,-125.916
0.314,0.449,-0.516,352.112,-424.377,-192.993
0.416,0.149,-0.161,370.056,-390.320,-230.591
0.501,-0.098,-0.023,346.558,-332.153,-240.417
0.626,-0.301,0.074,290.222,-284.668,-219.971
0.741,-0.420,0.177,205.872,-235.962,-172.119
0.835,-0.450,0.292,116.150,-192.627,-108.643
0.894,-0.408,0.393,54.260,-153.564,-44.250
0.935,-0.330,0.441,32.410,-111.816,10.010
0.926,-0.218,0.403,32.471,-66.345,52.917
0.895,-0.034,0.307,12.878,-23.682,87.463
0.871,0.191,0.193,-24.475,13.367,114.258
0.868,0.366,0.063,-41.199,46.204,127.930
0.891,0.461,-0.079,-32.654,70.313,125.366
0.893,0.499,-0.218,-19.470,83.069,109.619
0.861,0.499,-0.337,-16.907,82.947,87.341
0.845,0.465,-0.440,-21.179,73.364,67.078
0.873,0.417,-0.519,-28.381,60.303,50.842
0.866,0.376,-0.543,-31.128,42.664,35.645
0.842,0.329,-0.538,-16.846,17.883,23.193
0.819,0.290,-0.518,4.883,-6.775,18.677
0.807,0.283,-0.478,14.343,-25.818,22.156
0.806,0.311,-0.414,11.292,-40.771,29.114
0.803,0.349,-0.347,7.874,-53.345,34.485
0.768,0.394,-0.297,8.789,-64.575,37.048
0.725,0.449,-0.291,10.803,-72.388,39.368
0.656,0.523,-0.293,-1.343,-76.843,45.166
0.613,0.618,-0.321,-19.348,-78.979,53.955
0.589,0.725,-0.372,-32.410,-78.308,61.829
0.517,0.830,-0.445,-37.659,-77.087,65.186
0.441,0.924,-0.540,-39.490,-76.111,61.584
0.373,1.002,-0.676,-41.626,-74.463,50.110
0.297,1.054,-0.862,-46.875,-69.824,33.569
0.210,1.113,-1.047,-60.913,-59.875,12.939
0.112,1.191,-1.215,-78.857,-52.368,-13.000
-0.070,1.299,-1.363,-88.013,-57.556,-46.326
-0.196,1.418,-1.500,-87.830,-85.022,-81.787
-0.255,1.457,-1.585,-68.359,-131.287,-126.160
-0.451,1.393,-1.651,-32.715,-203.125,-189.514
-0.685,1.205,-1.644,-14.038,-298.340,-268.494
-0.970,0.856,-1.550,-2.502,-400.208,-356.384
-1.396,0.397,-1.370,-1.465,-499.695,-440.308
-1.834,-0.109,-1.121,-44.373,-599.060,-499.756
-2.194,-0.572,-0.772,-108.643,-701.782,-535.461
-2.619,-0.978,-0.328,-154.236,-816.833,-545.044
-2.997,-1.326,0.195,-185.059,-934.692,-516.907
-3.219,-1.490,0.758,-220.398,-1044.006,-444.946
-3.400,-1.583,1.193,-208.374,-1137.512,-335.937
-3.592,-1.583,1.773,-104.675,-1197.815,-232.056
-3.855,-1.540,2.206,43.396,-1231.445,-141.724
-4.000,-1.471,2.681,213.074,-1267.395,-86.975
-4.000,-1.532,3.236,390.503,-1243.652,-63.477
-3.798,-1.651,3.859,491.333,-1161.072,-57.129
-3.135,-1.627,4.000,437.073,-973.022,-42.786
-2.447,-1.215,4.000,220.093,-687.866,-8.057
-2.008,-0.574,4.000,-28.076,-330.078,31.921
-1.806,-0.235,3.606,-135.986,27.710,44.250
-1.715,-0.272,2.314,-141.785,306.763,36.255
-1.592,-0.332,1.183,-158.203,474.854,28.809
-1.443,-0.363,0.397,-170.593,541.443,25.330
-1.179,-0.397,-0.152,-149.597,514.954,25.940
-0.931,-0.417,-0.602,-111.816,438.599,34.363
-0.720,-0.396,-0.795,-69.946,318.481,45.532
-0.594,-0.339,-0.817,-35.522,176.880,53.894
-0.542,-0.250,-0.615,-15.808,35.400,55.786
-0.546,-0.202,-0.199,-0.183,-87.280,49.011
-0.607,-0.184,0.223,19.409,-183.960,35.889
-0.638,-0.210,0.660,37.781,-243.774,21.973
-0.649,-0.270,0.975,49.438,-259.094,10.010
-0.646,-0.325,1.273,45.288,-236.755,0.610
-0.668,-0.377,1.475,34.058,-179.932,-5.066
-0.668,-0.428,1.520,26.794,-109.924,-6.897
-0.672,-0.454,1.400,19.104,-36.377,-4.028

-1.322,-0.401,1.390,220.032,31.799,124.939
-1.510,-0.387,1.667,300.049,22.461,143.555
-1.809,-0.363,1.981,380.920,22.827,161.865
-2.357,-0.269,2.524,445.923,34.119,183.228
-2.479,-0.203,3.032,499.878,62.378,224.060
-2.498,-0.197,3.511,566.956,163.452,279.297
-2.684,-0.209,3.869,614.319,329.102,322.144
-3.246,-0.282,3.834,529.114,553.650,337.708
-3.789,-0.171,3.226,255.005,828.064,303.406
-4.000,-0.109,1.980,-52.124,1124.878,189.636
-4.000,-0.329,0.566,-255.981,1403.687,18.494
-4.000,-0.596,-0.630,-342.529,1611.328,-155.029
-4.000,-0.797,-1.663,-329.224,1719.971,-269.897
-4.000,-0.979,-2.298,-228.577,1745.178,-332.458
-4.000,-1.250,-3.254,-87.891,1591.736,-346.375
-2.976,-1.438,-3.953,20.996,1370.972,-305.786
-1.628,-1.588,-4.000,14.832,1058.350,-218.018
-0.699,-1.553,-4.000,-83.801,691.589,-122.253
-0.397,-1.321,-3.713,-124.817,320.801,-57.983
-0.553,-1.062,-2.927,-10.315,-24.536,-27.161
-0.812,-0.879,-2.169,153.259,-312.805,-28.076
-0.941,-0.784,-1.513,265.686,-521.973,-65.247
-1.105,-0.754,-0.964,335.876,-655.212,-131.287
-1.212,-0.755,-0.483,389.404,-720.764,-204.102
-1.239,-0.853,-0.106,462.036,-745.300,-280.273
-1.171,-1.060,-0.103,533.447,-742.310,-355.225
-1.002,-1.325,0.116,553.162,-627.136,-405.579
-0.818,-1.592,0.207,508.728,-510.071,-425.171
-0.533,-1.853,0.270,401.611,-399.658,-401.062
-0.358,-2.010,0.405,236.572,-286.011,-332.153
-0.216,-2.042,0.513,78.003,-177.185,-231.262
-0.196,-1.971,0.494,-4.272,-68.787,-126.526
-0.257,-1.804,0.340,-43.884,32.104,-32.959
-0.325,-1.584,0.168,-96.191,119.446,43.884
-0.340,-1.377,-0.021,-136.353,190.308,99.182
-0.302,-1.211,-0.222,-149.658,241.943,131.165
-0.285,-1.081,-0.401,-155.518,270.203,147.034
-0.285,-0.987,-0.536,-161.377,276.184,153.442
-0.246,-0.922,-0.656,-158.203,265.564,151.489
-0.218,-0.876,-0.770,-147.522,246.216,144.592
-0.215,-0.838,-0.867,-136.963,220.337,136.536
-0.185,-0.809,-0.948,-124.756,187.805,128.906
-0.131,-0.786,-1.009,-108.948,150.452,122.253
-0.124,-0.752,-1.039,-89.233,110.779,115.479
-0.136,-0.719,-1.044,-70.679,70.801,108.276
-0.140,-0.697,-1.039,-58.655,33.997,102.173
-0.167,-0.692,-1.014,-50.903,5.188,94.666
-0.189,-0.720,-1.003,-42.480,-14.404,84.045
-0.208,-0.772,-1.018,-39.795,-26.611,72.815
-0.222,-0.835,-1.062,-49.011,-32.837,66.223
-0.239,-0.906,-1.130,-71.777,-37.048,69.519
-0.308,-0.994,-1.249,-100.952,-48.950,82.031
-0.451,-1.075,-1.359,-142.395,-71.411,101.746
-0.627,-1.138,-1.394,-196.960,-108.826,129.395
-0.843,-1.102,-1.292,-242.798,-163.452,171.143
-1.052,-1.043,-1.195,-221.619,-237.488,216.553
-1.229,-0.958,-1.070,-140.015,-323.608,251.526
-1.422,-0.891,-0.997,-53.467,-410.645,268.738
-1.588,-0.857,-0.896,5.676,-493.103,265.808
-1.656,-0.842,-0.788,45.044,-571.716,243.225
-1.813,-0.844,-0.587,48.767,-655.090,213.745
-2.012,-0.850,-0.342,38.452,-743.469,180.359
-2.184,-0.850,-0.094,44.495,-841.187,139.709
-2.209,-0.864,0.195,86.426,-946.289,91.431
-2.740,-0.932,0.531,160.156,-1053.040,26.855
-3.172,-1.054,0.734,221.558,-1136.963,-53.040
-3.573,-1.134,0.994,219.360,-1202.759,-121.582
-3.779,-1.159,1.423,185.608,-1227.905,-155.762
-3.655,-1.178,1.886,196.960,-1246.643,-172.241
-3.221,-1.459,2.565,304.260,-1198.242,-186.462
-2.588,-1.868,3.122,375.183,-1053.894,-190.002
-1.990,-1.843,3.727,227.539,-809.204,-148.315
-1.473,-1.190,3.956,-80.444,-489.807,-65.918
-1.165,-0.574,3.556,-275.085,-137.756,-9.399
-1.019,-0.454,2.622,-246.033,180.359,-11.597
-1.006,-0.659,1.619,-177.979,423.035,-43.640
-1.041,-0.875,0.788,-226.562,577.820,-85.632
-1.135,-0.957,0.310,-349.182,653.259,-137.817
-1.131,-1.012,0.013,-464.783,642.334,-193.176
-1.017,-1.094,-0.169,-533.875,593.994,-245.300
-0.942,-1.269,-0.248,-512.390,505.188,-276.184
-0.742,-1.447,-0.275,-426.819,393.433,-269.653
-0.598,-1.582,-0.281,-298.767,281.433,-228.394
-0.522,-1.645,-0.269,-145.691,171.814,-159.424
-0.464,-1.597,-0.246,-13.977,70.923,-74.524
-0.431,-1.423,-0.181,63.660,-15.564,7.874
-0.426,-1.211,-0.040,88.013,-89.294,74.829
-0.421,-1.009,0.113,99.854,-147.583,125.732
-0.383,-0.826,0.251,109.314,-190.125,155.518
-0.409,-0.661,0.378,118.286,-216.003,163.696
-0.438,-0.550,0.495,132.874,-231.628,150.757
-0.442,-0.494,0.608,145.142,-240.356,125.916
-0.426,-0.479,0.711,147.461,-238.037,95.093
-0.436,-0.494,0.806,137.329,-222.473,61.462
-0.441,-0.526,0.893,114.075,-195.251,28.992
-0.418,-0.567,0.961,85.449,-158.142,1.343
-0.388,-0.616,0.995,63.110,-112.610,-22.034
-0.370,-0.677,0.985,50.049,-61.401,-41.138
-0.374,-0.748,0.928,38.086,-8.728,-55.786
-0.406,-0.809,0.854,18.555,39.612,-66.162

-1.188,-1.511,0.817,0.061,112.915,-207.825
-1.362,-1.922,0.847,-9.644,110.718,-268.921
-1.686,-2.299,0.903,-56.519,125.671,-332.458
-2.094,-2.612,0.983,-127.258,161.987,-366.699
-2.224,-2.985,1.006,-202.820,209.778,-350.037
-2.383,-3.803,1.512,-231.628,286.255,-289.734
-2.652,-4.000,1.039,34.485,373.047,-115.662
-2.769,-3.880,0.243,225.769,427.979,171.631
-3.023,-2.926,-0.162,108.093,478.699,473.022
-2.887,-1.881,-0.372,-227.173,481.262,707.214
-2.917,-0.959,-0.057,-515.137,546.021,839.294
-2.716,-0.422,-0.128,-385.071,578.430,897.461
-2.673,-0.015,-0.133,-138.550,569.763,934.326
-2.751,0.262,-0.139,58.350,549.866,969.360
-2.289,0.495,-0.350,173.767,541.199,1030.884
-2.293,0.806,-0.448,134.216,526.062,1080.566
-2.216,1.207,-0.507,9.521,534.241,1084.778
-1.998,1.590,-0.697,-130.188,548.279,1034.851
-1.770,1.903,-0.992,-280.640,585.937,946.289
-1.540,2.024,-1.335,-454.163,630.188,818.848
-1.187,1.977,-1.751,-660.095,638.000,655.029
-0.760,1.821,-1.884,-859.375,622.864,473.022
-0.323,1.506,-2.054,-961.060,538.147,296.936
0.062,1.203,-2.034,-903.076,388.245,147.400
0.347,0.939,-1.935,-680.847,239.868,38.269
0.526,0.758,-1.798,-365.845,88.867,-26.672
0.633,0.681,-1.605,-48.889,-49.255,-64.087
0.625,0.684,-1.339,217.224,-169.434,-91.553
0.616,0.708,-1.017,413.086,-271.118,-119.019
0.629,0.698,-0.709,546.387,-353.821,-158.569
0.659,0.598,-0.448,632.690,-416.382,-211.060
0.468,0.438,-0.204,679.382,-448.547,-264.587
0.473,0.217,0.053,701.050,-420.959,-312.012
0.514,-0.052,0.192,678.772,-401.001,-348.328
0.579,-0.315,0.306,583.984,-354.675,-363.892
0.609,-0.534,0.391,442.383,-302.185,-359.314
0.652,-0.682,0.457,277.527,-262.634,-336.731
0.742,-0.775,0.508,127.747,-232.605,-300.476
0.891,-0.819,0.580,14.587,-209.778,-258.545
0.745,-0.808,0.664,-49.500,-194.397,-221.619
0.744,-0.801,0.760,-50.110,-173.401,-183.960
0.844,-0.781,0.805,8.606,-156.372,-141.418
0.826,-0.765,0.786,86.487,-128.967,-102.844
0.711,-0.743,0.733,133.789,-97.717,-70.923
0.638,-0.706,0.657,140.259,-71.350,-33.875
0.665,-0.613,0.601,115.112,-52.307,8.606
0.716,-0.480,0.571,85.022,-39.734,52.612
0.719,-0.315,0.539,67.993,-26.672,90.149
0.704,-0.130,0.509,58.838,-14.465,116.821
0.685,0.055,0.461,62.744,-4.395,130.920
0.657,0.238,0.386,78.796,2.258,135.498
0.645,0.421,0.303,96.375,5.920,130.981
0.631,0.577,0.223,113.281,5.371,119.263
0.601,0.718,0.174,117.249,0.244,97.961
0.508,0.838,0.164,111.694,-6.836,64.453
0.454,0.949,0.159,99.121,-16.174,18.250
0.403,1.021,0.176,77.820,-24.292,-39.368
0.341,1.034,0.210,47.058,-27.832,-112.061
0.296,0.959,0.235,15.503,-25.574,-197.205
0.221,0.778,0.221,-7.263,-16.968,-288.696
0.058,0.530,0.171,-22.583,-6.714,-377.747
-0.131,0.281,0.111,-38.025,-1.770,-453.979
-0.293,0.059,0.077,-57.495,-6.836,-511.475
-0.478,-0.142,0.096,-76.416,-25.452,-552.185
-0.655,-0.316,0.144,-75.012,-54.077,-578.918
-0.762,-0.468,0.183,-46.509,-84.106,-592.468
-0.859,-0.648,0.211,-11.475,-108.887,-592.224
-0.783,-0.850,0.246,-9.827,-128.052,-587.952
-1.026,-0.958,0.338,-60.852,-145.203,-584.595
-1.091,-1.071,0.491,-126.343,-168.640,-578.735
-1.114,-1.205,0.604,-155.701,-207.764,-581.726
-1.173,-1.329,0.827,-148.376,-264.954,-575.439
-1.366,-1.513,1.014,-85.938,-321.045,-564.697
-1.589,-1.712,1.140,-15.137,-360.474,-555.359
-1.576,-1.884,1.235,9.827,-379.211,-524.658
-1.552,-1.999,1.257,0.732,-375.977,-474.426
-1.547,-2.020,1.275,-23.926,-349.792,-410.217
-1.436,-1.993,1.267,-34.546,-313.721,-329.407
-1.305,-1.924,1.195,-11.597,-272.034,-243.958
-1.191,-1.819,1.070,21.057,-227.478,-163.452
-1.102,-1.661,0.956,35.339,-182.373,-87.585
-1.055,-1.477,0.861,41.565,-142.273,-13.977
-0.996,-1.308,0.768,64.026,-111.267,54.199
-0.921,-1.177,0.676,96.130,-87.585,111.633
-0.850,-1.064,0.592,119.446,-68.970,154.663
-0.808,-0.958,0.528,126.099,-54.626,186.279
-0.742,-0.856,0.480,122.192,-42.603,208.679
-0.689,-0.762,0.435,117.126,-31.677,220.825
-0.624,-0.680,0.393,114.563,-23.804,222.900
-0.633,-0.615,0.361,112.732,-19.409,217.224
-0.665,-0.565,0.338,105.835,-18.921,205.811
-0.672,-0.520,0.332,91.736,-19.104,192.383
-0.596,-0.488,0.334,73.730,-16.113,177.002
-0.497,-0.466,0.336,55.847,-7.751,158.264
-0.422,-0.457,0.340,35.217,6.042,134.216
-0.387,-0.474,0.344,11.780,22.766,104.614
-0.411,-0.519,0.342,-12.817,38.391,72.693
-0.514,-0.570,0.352,-44.250,51.575,42.603
-0.540,-0.609,0.372,-75.989,60.425,15.808
-0.568,-0.643,0.387,-90.637,62.866,-8.789

-0.906,-0.603,0.989,86.609,-209.229,222.351
-0.909,-0.616,1.097,57.251,-214.172,185.425
-0.947,-0.637,1.213,6.592,-198.547,125.061
-1.028,-0.662,1.318,-49.438,-158.508,60.730
-1.127,-0.695,1.421,-95.764,-95.642,2.258
-1.191,-0.722,1.491,-127.441,-21.118,-44.189
-1.198,-0.771,1.532,-136.902,70.129,-72.571
-1.195,-0.906,1.524,-121.277,175.415,-87.524
-1.334,-1.133,1.424,-118.103,279.724,-106.750
-1.454,-1.297,1.347,-187.012,391.174,-121.826
-1.555,-1.338,1.306,-296.509,501.648,-122.925
-1.422,-1.279,1.225,-359.741,601.257,-114.868
-1.155,-1.235,1.029,-316.406,701.904,-87.708
-0.995,-1.176,0.688,-193.604,802.124,-41.870
-1.020,-1.102,0.328,-88.501,895.752,8.484
-1.193,-1.023,0.018,-65.063,968.567,46.204
-1.371,-0.964,-0.191,-113.586,1016.785,55.237
-1.492,-0.904,-0.320,-188.232,1033.630,27.588
-1.436,-0.828,-0.413,-244.141,1016.541,-22.217
-1.249,-0.753,-0.498,-243.530,975.464,-65.857
-1.096,-0.705,-0.583,-195.190,919.861,-83.130
-0.982,-0.680,-0.652,-131.409,862.671,-85.938
-0.843,-0.689,-0.733,-77.271,813.782,-90.759
-0.607,-0.728,-0.826,-54.993,767.578,-100.098
-0.382,-0.769,-0.906,-72.693,717.468,-111.145
-0.209,-0.815,-0.953,-119.080,661.865,-119.629
-0.101,-0.850,-0.967,-172.180,604.736,-124.756
-0.013,-0.864,-0.954,-209.961,548.706,-128.967
0.109,-0.886,-0.952,-211.975,492.615,-131.531
0.262,-0.930,-0.986,-175.110,434.753,-130.554
0.450,-0.979,-1.053,-122.375,374.023,-124.146
0.664,-1.019,-1.158,-77.820,312.134,-104.919
0.846,-1.016,-1.204,-61.218,242.065,-69.214
0.847,-0.952,-1.189,-46.326,165.466,-27.405
0.791,-0.854,-1.151,-7.996,92.590,12.634
0.716,-0.748,-1.100,51.941,23.926,43.091
0.602,-0.655,-1.044,122.986,-41.016,61.646
0.512,-0.570,-0.994,180.969,-98.999,66.956
0.531,-0.521,-0.950,216.431,-151.489,60.364
0.517,-0.481,-0.868,227.783,-198.425,48.523
0.534,-0.450,-0.766,228.088,-238.708,33.020
0.569,-0.432,-0.670,231.812,-273.621,14.221
0.632,-0.413,-0.569,240.601,-303.223,-5.554
0.664,-0.390,-0.459,247.070,-329.041,-27.039
0.673,-0.388,-0.350,251.526,-351.379,-47.668
0.632,-0.415,-0.240,255.249,-367.310,-67.200
0.543,-0.466,-0.147,258.362,-373.779,-86.182
0.491,-0.527,-0.067,250.732,-366.943,-105.164
0.484,-0.598,0.008,222.229,-347.229,-121.643
0.510,-0.668,0.076,171.631,-318.665,-131.592
0.527,-0.727,0.140,107.239,-285.156,-134.094
0.544,-0.771,0.204,41.565,-247.986,-129.028
0.546,-0.800,0.264,-12.390,-208.679,-117.310
0.569,-0.831,0.301,-48.340,-168.091,-101.929
0.573,-0.859,0.314,-71.045,-125.854,-86.792
0.586,-0.878,0.315,-91.553,-83.435,-71.411
0.582,-0.880,0.307,-110.107,-44.434,-55.115
0.574,-0.868,0.279,-119.690,-8.911,-37.781
0.545,-0.856,0.216,-119.690,24.414,-20.813
0.487,-0.837,0.127,-122.803,58.716,-4.761
0.418,-0.813,0.029,-139.221,93.018,9.155
0.317,-0.787,-0.066,-165.466,124.207,19.226
0.227,-0.767,-0.156,-193.237,150.940,23.865
0.169,-0.765,-0.241,-215.942,169.617,23.987
0.145,-0.772,-0.311,-235.046,178.467,22.095
0.147,-0.790,-0.364,-248.901,175.354,22.827
0.169,-0.803,-0.396,-255.066,158.691,29.419
0.205,-0.813,-0.433,-255.920,131.409,45.959
0.311,-0.822,-0.464,-256.470,96.985,72.449
0.413,-0.787,-0.433,-253.479,52.307,105.408
0.499,-0.731,-0.385,-211.914,-5.798,135.864
0.566,-0.697,-0.375,-129.272,-70.984,166.077
0.642,-0.651,-0.375,-57.434,-135.742,201.599
0.624,-0.556,-0.324,-27.222,-199.280,240.845
0.587,-0.445,-0.215,-14.832,-261.841,277.832
0.646,-0.332,-0.080,10.498,-324.829,301.819
0.639,-0.213,0.074,60.181,-386.841,310.181
0.553,-0.108,0.246,119.995,-446.777,307.129
0.432,-0.031,0.416,171.997,-503.601,293.579
0.317,0.018,0.596,196.533,-550.293,273.682
0.184,0.065,0.802,186.829,-585.449,249.329
0.027,0.092,1.022,155.273,-605.225,215.942
-0.130,0.093,1.240,119.995,-604.065,175.354
-0.195,0.064,1.435,84.717,-577.271,135.498
-0.158,0.020,1.591,44.617,-529.297,100.098
-0.126,-0.027,1.716,8.667,-470.581,67.383
-0.084,-0.095,1.784,-13.306,-407.898,37.659
-0.048,-0.173,1.817,-25.879,-340.210,12.939
-0.033,-0.237,1.808,-37.720,-272.217,-1.831
-0.024,-0.280,1.771,-46.326,-207.642,-5.981
-0.003,-0.309,1.698,-45.105,-150.757,-2.625
0.014,-0.336,1.596,-36.865,-104.004,5.005
0.033,-0.352,1.482,-29.785,-66.589,14.160
0.049,-0.358,1.377,-27.588,-38.330,23.560
0.076,-0.355,1.283,-28.564,-19.287,32.227
0.114,-0.361,1.206,-26.367,-8.789,39.185
0.149,-0.346,1.164,-24.109,-8.545,46.692
0.162,-0.280,1.163,-20.752,-18.677,61.401
0.149,-0.192,1.182,7.019,-35.828,81.177
0.108,-0.147,1.191,60.913,-54.138,98.083

-1.049,0.316,1.909,410.278,-164.917,7.935
-1.202,0.471,1.885,541.748,-112.915,-48.950
-1.153,0.577,1.833,726.013,-29.724,-127.930
-1.165,0.414,1.682,922.485,97.412,-213.562
-1.246,0.136,1.491,1006.958,280.518,-270.447
-1.201,-0.140,1.205,937.561,481.506,-268.738
-1.228,-0.326,0.745,753.723,666.809,-215.149
-1.375,-0.461,0.131,485.046,830.566,-141.602
-2.245,-0.466,-0.335,130.310,969.727,-97.534
-2.626,-0.370,-0.655,-301.025,1054.932,-95.154
-2.974,-0.335,-0.774,-638.062,1097.046,-177.795
-3.115,-0.438,-0.751,-788.452,1069.641,-331.543
-3.154,-0.639,-0.675,-748.413,962.463,-499.207
-3.008,-0.943,-0.611,-551.208,810.486,-628.296
-2.655,-1.268,-0.692,-287.964,635.986,-690.979
-2.154,-1.603,-0.769,-72.815,474.487,-683.472
-1.861,-1.931,-0.928,65.552,327.454,-618.958
-1.441,-2.146,-1.013,102.295,197.937,-518.616
-0.958,-2.271,-0.999,50.171,67.627,-387.512
-0.787,-2.229,-0.830,-11.353,-53.162,-240.662
-0.826,-2.058,-0.603,-11.536,-172.241,-99.243
-0.867,-1.884,-0.430,71.899,-286.499,20.630
-0.963,-1.685,-0.302,175.232,-391.113,120.789
-1.294,-1.500,-0.179,231.201,-477.417,201.660
-1.479,-1.292,0.015,196.106,-550.293,252.258
-1.636,-1.118,0.145,142.578,-616.394,282.288
-1.690,-1.001,0.314,118.652,-646.667,300.171
-1.710,-0.885,0.445,103.577,-656.799,308.533
-1.693,-0.779,0.582,89.600,-659.790,307.373
-1.586,-0.680,0.710,82.092,-650.146,296.692
-1.468,-0.571,0.827,85.999,-628.357,279.907
-1.246,-0.461,0.953,113.770,-590.149,255.920
-1.000,-0.395,1.024,173.096,-540.344,218.994
-0.870,-0.387,1.057,222.656,-474.426,164.124
-0.747,-0.413,1.089,211.731,-383.545,105.835
-0.568,-0.463,1.138,143.799,-289.856,58.228
-0.472,-0.500,1.166,63.232,-189.331,18.494
-0.468,-0.555,1.118,1.648,-82.214,-16.602
-0.503,-0.615,0.998,-54.199,19.653,-48.340
-0.550,-0.657,0.850,-116.516,109.802,-74.280
-0.604,-0.672,0.695,-174.744,187.561,-94.849
-0.671,-0.674,0.553,-220.093,249.146,-117.432
-0.741,-0.697,0.446,-239.624,291.077,-140.747
-0.798,-0.748,0.345,-228.455,315.613,-164.124
-0.838,-0.809,0.249,-198.242,325.195,-183.411
-0.856,-0.877,0.163,-167.664,323.242,-195.862
-0.866,-0.944,0.087,-146.851,311.218,-199.341
-0.877,-1.006,0.023,-135.864,293.823,-194.824
-0.895,-1.061,-0.021,-134.155,272.217,-183.411
-0.925,-1.110,-0.044,-139.587,245.361,-167.297
-0.955,-1.163,-0.047,-145.081,213.562,-148.437
-1.007,-1.216,-0.040,-145.386,180.847,-126.953
-1.039,-1.262,-0.028,-140.686,151.367,-102.295
-1.071,-1.305,-0.021,-127.319,125.000,-74.463
-1.107,-1.337,-0.011,-107.117,99.487,-42.847
-1.084,-1.362,-0.005,-83.618,68.176,-5.127
-1.070,-1.387,-0.013,-56.580,32.043,36.377
-1.164,-1.419,-0.029,-33.569,-0.244,77.209
-1.308,-1.451,-0.035,-31.799,-27.405,114.136
-1.440,-1.476,-0.019,-49.683,-52.124,148.193
-1.587,-1.488,0.020,-71.167,-76.660,182.739
-1.745,-1.504,0.076,-79.346,-106.384,218.567
-1.685,-1.526,0.122,-70.862,-144.592,255.127
-1.577,-1.529,0.176,-49.744,-191.589,302.307
-1.492,-1.495,0.233,-20.447,-240.234,363.220
-1.465,-1.397,0.294,9.888,-283.997,432.983
-1.484,-1.275,0.340,34.607,-322.144,505.066
-1.492,-1.135,0.385,37.964,-352.478,575.562
-1.562,-0.956,0.445,14.954,-373.840,643.555
-1.636,-0.750,0.501,-14.771,-385.193,706.055
-1.617,-0.559,0.530,-34.302,-383.240,755.249
-1.543,-0.359,0.540,-45.410,-368.103,787.170
-1.457,-0.144,0.543,-51.392,-345.337,802.856
-1.365,0.066,0.533,-51.208,-323.242,806.824
-1.245,0.272,0.516,-48.950,-303.894,799.011
-1.062,0.474,0.505,-49.438,-287.476,775.513
-0.883,0.646,0.506,-49.927,-277.771,736.572
-0.667,0.835,0.533,-41.016,-273.987,675.598
-0.395,1.013,0.582,-7.751,-276.428,591.797
-0.199,1.127,0.638,44.556,-282.776,494.202
-0.002,1.174,0.718,98.206,-284.729,375.488
0.130,1.131,0.817,139.526,-283.508,246.765
0.198,0.988,0.940,162.903,-272.461,114.563
0.169,0.759,1.038,168.091,-250.793,-13.062
0.142,0.495,1.122,156.311,-219.604,-128.296
0.097,0.231,1.128,129.822,-180.603,-226.501
0.027,0.009,1.110,72.876,-138.794,-308.594
-0.088,-0.165,1.094,-4.761,-100.891,-376.038
-0.135,-0.307,1.086,-73.425,-67.932,-425.476
-0.233,-0.468,1.065,-109.070,-41.260,-460.876
-0.301,-0.610,1.056,-118.103,-16.052,-484.070
-0.374,-0.760,1.023,-106.445,10.620,-494.263
-0.437,-0.907,0.985,-93.933,34.424,-494.080
-0.483,-1.037,0.951,-91.675,54.749,-488.037
-0.518,-1.154,0.927,-95.154,72.144,-475.891
-0.546,-1.254,0.904,-98.022,85.449,-454.407
-0.563,-1.343,0.881,-90.759,95.398,-423.157
-0.553,-1.428,0.849,-73.242,102.905,-382.385
-0.530,-1.502,0.810,-55.237,106.201,-332.397
-0.481,-1.545,0.780,-47.302,106.689,-273.376

-0.371,-1.526,0.738,-42.053,105.042,-138.611
-0.353,-1.447,0.708,-25.452,102.356,-69.458
-0.301,-1.360,0.647,6.592,98.572,-5.005
-0.271,-1.283,0.566,38.391,95.398,49.866
-0.274,-1.180,0.518,43.701,89.294,98.938
-0.260,-1.064,0.498,37.109,77.759,138.977
-0.248,-0.961,0.490,41.443,60.425,168.884
-0.233,-0.870,0.488,58.777,37.476,188.965
-0.208,-0.797,0.489,79.773,11.414,201.111
-0.188,-0.726,0.501,94.238,-13.672,208.008
-0.165,-0.657,0.530,99.487,-37.048,211.914
-0.129,-0.597,0.567,103.882,-57.861,210.937
-0.087,-0.551,0.602,110.901,-74.219,202.881
-0.046,-0.514,0.630,115.234,-84.595,188.049
-0.016,-0.492,0.655,113.647,-89.172,168.152
0.010,-0.477,0.679,104.553,-89.172,145.325
0.041,-0.474,0.703,87.952,-85.083,120.056
0.073,-0.479,0.728,66.650,-78.064,92.896
0.082,-0.490,0.757,44.495,-67.566,64.819
0.071,-0.504,0.787,24.719,-53.833,38.208
0.068,-0.532,0.811,10.376,-38.330,13.855
0.064,-0.573,0.824,1.221,-21.790,-8.423
0.045,-0.616,0.827,-10.132,-3.784,-29.358
0.036,-0.656,0.827,-27.344,14.832,-47.302
0.024,-0.691,0.821,-45.654,33.142,-62.378
0.002,-0.721,0.807,-62.744,49.927,-75.500
-0.008,-0.746,0.792,-78.186,64.575,-85.449
-0.023,-0.770,0.779,-87.463,76.721,-91.797
-0.039,-0.789,0.767,-90.637,85.876,-95.642
-0.049,-0.810,0.756,-87.463,91.736,-96.741
-0.037,-0.836,0.748,-79.163,95.764,-96.191
-0.048,-0.859,0.740,-69.214,98.816,-95.764
-0.075,-0.876,0.743,-61.584,99.915,-95.093
-0.083,-0.886,0.757,-53.589,98.389,-91.492
-0.083,-0.912,0.764,-39.001,94.971,-87.280
-0.103,-0.959,0.755,-25.574,92.163,-83.923
-0.120,-1.000,0.760,-28.625,89.294,-79.712
-0.119,-1.016,0.794,-44.373,84.900,-71.350
-0.138,-1.035,0.848,-51.453,79.163,-60.303
-0.200,-1.060,0.889,-44.922,70.862,-51.575
-0.147,-1.093,0.939,-38.574,66.223,-39.490
-0.129,-1.119,0.991,-32.837,65.186,-24.841
-0.230,-1.145,1.031,-23.682,66.956,-13.672
-0.213,-1.137,1.083,-22.461,68.787,-2.380
-0.205,-1.104,1.154,-12.512,71.960,20.569
-0.192,-1.094,1.183,35.217,82.825,54.504
-0.162,-1.105,1.159,93.933,102.478,94.849
-0.151,-1.058,1.118,126.526,128.357,144.043
-0.145,-0.953,1.053,141.724,157.410,200.378
-0.136,-0.828,0.965,157.898,184.631,255.249
-0.125,-0.711,0.864,171.326,211.609,309.631
-0.110,-0.608,0.752,172.485,239.075,360.840
-0.096,-0.495,0.640,150.879,267.761,402.527
-0.102,-0.367,0.533,108.765,300.842,433.350
-0.223,-0.244,0.402,56.152,338.135,450.562
-0.176,-0.139,0.269,-7.080,381.104,455.994
0.007,0.056,0.194,-83.435,417.603,456.848
0.057,0.199,0.076,-121.460,450.806,443.359
0.050,0.264,-0.080,-120.850,473.999,390.808
0.236,0.357,-0.199,-155.090,470.215,333.069
0.389,0.441,-0.290,-205.200,441.589,277.283
0.592,0.490,-0.357,-224.670,432.129,211.731
0.775,0.496,-0.459,-219.666,410.767,130.310
0.984,0.438,-0.543,-207.703,375.000,44.739
1.121,0.346,-0.600,-203.857,322.571,-35.156
1.161,0.243,-0.619,-200.134,264.282,-106.506
1.086,0.136,-0.597,-192.200,204.102,-165.405
1.023,0.028,-0.547,-177.856,142.883,-210.144
0.930,-0.083,-0.484,-148.682,88.867,-242.920
0.851,-0.201,-0.422,-102.112,47.241,-272.461
0.767,-0.323,-0.365,-50.415,15.808,-298.584
0.666,-0.447,-0.314,-5.859,-6.592,-318.848
0.584,-0.568,-0.270,22.095,-21.118,-332.581
0.499,-0.691,-0.233,32.104,-28.992,-339.539
0.476,-0.811,-0.199,22.278,-31.921,-339.600
0.437,-0.920,-0.163,-2.930,-33.325,-328.491
0.417,-1.013,-0.116,-28.748,-31.677,-308.350
0.407,-1.095,-0.075,-43.579,-29.480,-283.936
0.413,-1.169,-0.039,-42.847,-26.184,-255.798
0.398,-1.235,-0.015,-31.860,-21.729,-223.206
0.405,-1.295,-0.005,-17.578,-14.160,-186.829
0.413,-1.340,-0.008,-7.690,-4.456,-149.597
0.420,-1.363,-0.014,-5.737,6.836,-110.107
0.419,-1.360,-0.024,-10.376,18.921,-69.153
0.440,-1.331,-0.039,-16.907,29.724,-28.870
0.464,-1.272,-0.055,-20.752,38.574,7.874
0.469,-1.193,-0.072,-17.822,44.434,41.016
0.483,-1.120,-0.090,-6.042,46.631,68.909
0.493,-1.054,-0.115,9.338,46.875,90.759
0.496,-0.992,-0.136,19.531,46.814,108.398
0.507,-0.927,-0.151,21.118,46.753,122.253
0.528,-0.864,-0.164,17.090,46.936,132.324
0.538,-0.801,-0.174,12.390,47.119,139.832
0.553,-0.742,-0.188,8.484,47.180,144.714
0.555,-0.688,-0.203,5.676,47.852,146.423
0.566,-0.641,-0.224,2.136,48.523,144.592
0.582,-0.598,-0.244,-3.845,49.011,139.771
0.591,-0.560,-0.265,-12.085,49.561,133.728
0.584,-0.526,-0.287,-19.592,48.584,127.258
0.580,-0.502,-0.313,-24.963,46.631,120.728

-1.000,-1.217,0.868,-84.290,-425.598,-507.751
-1.010,-1.330,0.963,-116.455,-398.010,-487.671
-0.981,-1.410,1.049,-136.169,-369.385,-451.538
-0.930,-1.486,1.125,-130.615,-338.806,-404.846
-0.867,-1.569,1.172,-100.037,-300.598,-351.379
-0.791,-1.647,1.191,-66.956,-256.897,-291.931
-0.693,-1.701,1.197,-46.753,-206.848,-225.769
-0.643,-1.714,1.192,-39.001,-148.071,-154.724
-0.622,-1.672,1.167,-35.767,-86.670,-84.167
-0.615,-1.566,1.100,-26.672,-26.733,-16.357
-0.610,-1.444,0.999,-7.385,27.527,43.091
-0.602,-1.323,0.890,8.240,75.012,94.727
-0.595,-1.200,0.787,10.742,114.868,137.268
-0.585,-1.079,0.696,4.944,146.118,170.227
-0.556,-0.969,0.612,0.610,167.725,194.092
-0.517,-0.868,0.534,2.197,179.443,208.984
-0.462,-0.776,0.465,7.324,182.739,215.576
-0.400,-0.699,0.400,14.526,178.528,215.332
-0.332,-0.631,0.344,20.691,168.335,208.801
-0.265,-0.574,0.296,23.376,154.236,196.777
-0.203,-0.527,0.256,22.705,137.878,179.565
-0.143,-0.495,0.229,20.203,118.530,157.043
-0.093,-0.472,0.214,17.517,95.520,128.845
-0.043,-0.465,0.208,16.235,69.336,96.985
-0.011,-0.470,0.209,17.273,43.030,62.378
-0.001,-0.484,0.226,18.921,19.958,27.710
-0.010,-0.521,0.251,21.057,0.244,-4.883
-0.046,-0.574,0.284,20.752,-16.785,-33.691
-0.063,-0.625,0.330,14.893,-31.006,-56.702
-0.090,-0.673,0.378,9.644,-42.847,-76.172
-0.118,-0.730,0.420,8.545,-50.964,-93.201
-0.142,-0.788,0.455,7.263,-55.603,-106.384
-0.170,-0.842,0.491,2.930,-57.190,-114.807
-0.196,-0.890,0.524,-2.747,-56.091,-118.591
-0.216,-0.934,0.555,-5.188,-52.368,-118.652
-0.245,-0.974,0.577,-2.930,-45.776,-116.211
-0.268,-1.016,0.590,-0.244,-36.133,-111.694
-0.296,-1.053,0.599,-1.587,-24.902,-105.896
-0.318,-1.085,0.609,-7.935,-13.062,-99.915
-0.330,-1.115,0.618,-16.602,-2.075,-95.215
-0.345,-1.143,0.630,-24.231,6.836,-89.905
-0.357,-1.164,0.633,-28.625,15.137,-82.275
-0.358,-1.190,0.627,-28.992,24.475,-72.205
-0.343,-1.217,0.610,-29.175,36.499,-59.082
-0.326,-1.236,0.577,-35.217,50.293,-42.114
-0.340,-1.271,0.515,-48.157,67.139,-23.437
-0.371,-1.318,0.450,-75.012,88.440,-8.057
-0.391,-1.328,0.394,-121.033,107.605,6.104
-0.396,-1.342,0.337,-168.152,127.563,24.231
-0.395,-1.351,0.283,-207.581,150.146,44.739
-0.401,-1.331,0.234,-241.211,168.518,71.228
-0.416,-1.308,0.178,-256.592,181.213,109.070
-0.418,-1.270,0.112,-248.474,185.730,153.809
-0.418,-1.206,0.052,-217.163,177.185,202.820
-0.370,-1.126,0.001,-163.391,150.269,249.939
-0.305,-1.038,-0.042,-89.355,101.257,291.443
-0.308,-0.936,-0.070,-5.432,31.677,327.454
-0.340,-0.821,-0.072,74.463,-50.110,360.413
-0.374,-0.708,-0.043,140.686,-138.977,387.268
-0.484,-0.603,0.013,190.674,-230.225,403.503
-0.588,-0.530,0.087,223.083,-316.589,406.677
-0.663,-0.474,0.181,234.558,-390.503,397.522
-0.753,-0.417,0.295,223.938,-451.965,381.042
-0.823,-0.369,0.422,203.613,-500.916,360.413
-0.861,-0.335,0.550,183.655,-535.339,334.656
-0.876,-0.300,0.692,166.687,-559.021,304.321
-0.860,-0.276,0.841,160.400,-574.768,268.616
-0.834,-0.282,0.972,172.791,-583.923,222.046
-0.860,-0.313,1.095,196.960,-583.984,163.940
-0.838,-0.377,1.208,220.764,-570.251,104.126
-0.822,-0.467,1.302,228.821,-542.297,45.837
-0.740,-0.560,1.420,212.280,-495.239,-5.493
-0.659,-0.653,1.505,176.758,-433.289,-47.729
-0.582,-0.731,1.595,135.132,-355.713,-81.421
-0.503,-0.810,1.641,99.243,-267.822,-106.262
-0.442,-0.889,1.634,70.679,-172.363,-123.718
-0.415,-0.956,1.573,40.588,-71.777,-131.653
-0.398,-0.987,1.469,1.648,27.710,-130.188
-0.423,-0.970,1.326,-40.527,120.911,-125.916
-0.449,-0.933,1.156,-75.317,202.148,-125.183
-0.500,-0.875,0.998,-101.563,268.738,-129.089
-0.545,-0.832,0.838,-116.150,319.092,-136.353
-0.571,-0.811,0.697,-123.169,354.248,-148.071
-0.609,-0.797,0.568,-134.766,372.314,-161.682
-0.605,-0.782,0.474,-151.489,375.610,-174.683
-0.594,-0.783,0.403,-160.828,366.516,-188.782
-0.572,-0.799,0.350,-160.767,344.849,-202.087
-0.547,-0.823,0.323,-155.640,315.918,-211.365
-0.529,-0.850,0.313,-144.958,281.799,-214.417
-0.501,-0.881,0.319,-126.953,245.422,-210.144
-0.469,-0.913,0.325,-102.173,207.336,-197.571
-0.437,-0.948,0.329,-72.876,170.105,-178.345
-0.406,-0.990,0.321,-45.349,137.085,-155.396
-0.379,-1.026,0.311,-27.771,107.910,-130.432
-0.366,-1.042,0.315,-20.874,78.247,-100.647
-0.354,-1.041,0.332,-13.367,46.082,-65.674
-0.350,-1.026,0.354,3.723,13.916,-29.846
-0.364,-0.998,0.383,30.090,-17.395,3.113
-0.376,-0.954,0.420,59.814,-47.241,33.508
-0.388,-0.909,0.466,89.905,-76.416,61.462

-0.448,-0.978,1.309,-160.950,24.170,-7.935
-0.435,-0.970,1.358,-182.678,68.604,-3.723
-0.472,-0.950,1.392,-195.740,115.479,8.911
-0.479,-0.932,1.397,-188.538,164.490,24.414
-0.499,-0.906,1.379,-175.964,214.478,41.382
-0.499,-0.847,1.340,-166.443,263.428,61.096
-0.505,-0.765,1.261,-152.466,308.960,80.627
-0.477,-0.700,1.175,-134.827,348.145,96.008
-0.463,-0.631,1.112,-126.099,376.648,107.666
-0.469,-0.561,1.058,-113.708,399.353,118.591
-0.434,-0.510,0.993,-85.083,418.335,128.784
-0.400,-0.482,0.909,-47.058,435.425,139.160
-0.354,-0.450,0.802,-14.099,454.346,146.545
-0.273,-0.402,0.697,-3.052,471.924,151.367
-0.208,-0.344,0.587,-8.606,489.990,152.710
-0.202,-0.289,0.471,-22.034,511.108,148.926
-0.187,-0.230,0.348,-41.199,530.090,139.099
-0.149,-0.176,0.225,-60.669,541.870,125.671
-0.113,-0.131,0.100,-75.256,545.959,110.474
-0.056,-0.094,-0.017,-86.670,541.931,92.896
0.017,-0.069,-0.134,-99.060,529.846,75.256
0.161,-0.063,-0.248,-112.610,511.047,55.725
0.362,-0.075,-0.338,-127.869,486.328,31.250
0.550,-0.099,-0.406,-142.639,449.768,3.601
0.727,-0.129,-0.439,-149.231,402.344,-24.170
0.792,-0.163,-0.452,-136.047,350.525,-51.819
0.868,-0.208,-0.462,-104.736,301.208,-76.965
0.903,-0.267,-0.476,-69.702,255.615,-95.886
0.914,-0.332,-0.489,-45.044,214.294,-110.168
0.895,-0.389,-0.489,-39.429,177.307,-119.141
0.889,-0.439,-0.478,-47.668,143.616,-122.803
0.856,-0.483,-0.456,-55.603,111.755,-124.023
0.836,-0.525,-0.433,-53.894,82.092,-122.803
0.831,-0.571,-0.416,-40.588,55.176,-119.812
0.848,-0.621,-0.403,-20.081,29.907,-114.990
0.859,-0.664,-0.388,-1.404,5.310,-106.689
0.837,-0.701,-0.361,12.634,-17.029,-96.069
0.826,-0.729,-0.326,21.912,-37.903,-84.473
0.807,-0.749,-0.283,28.137,-55.603,-71.655
0.793,-0.763,-0.238,35.217,-70.618,-58.533
0.782,-0.775,-0.191,42.542,-82.458,-45.166
0.769,-0.776,-0.142,45.776,-91.370,-31.677
0.772,-0.765,-0.090,44.312,-96.741,-15.625
0.772,-0.740,-0.038,43.701,-100.647,0.854
0.750,-0.707,0.004,47.974,-101.624,17.090
0.757,-0.673,0.037,53.589,-100.220,32.532
0.770,-0.627,0.064,54.138,-97.290,46.814
0.789,-0.581,0.089,50.110,-92.712,58.533
0.816,-0.536,0.109,45.166,-88.135,66.589
0.842,-0.501,0.127,41.992,-83.374,70.618
0.863,-0.469,0.141,39.612,-78.308,70.557
0.883,-0.443,0.155,37.415,-72.632,67.688
0.888,-0.418,0.167,34.119,-66.040,62.500
0.877,-0.399,0.176,29.053,-57.434,55.176
0.877,-0.384,0.181,21.790,-47.607,46.631
0.866,-0.368,0.183,13.794,-36.621,38.452
0.845,-0.359,0.177,9.155,-25.330,30.396
0.828,-0.363,0.156,8.301,-13.245,21.362
0.816,-0.380,0.119,4.395,-2.258,13.000
0.815,-0.402,0.075,-6.531,7.324,6.104
0.802,-0.414,0.037,-22.766,14.832,2.136
0.799,-0.416,0.003,-36.499,18.250,1.648
0.778,-0.415,-0.032,-39.063,18.127,2.502
0.738,-0.423,-0.076,-32.043,14.709,4.272
0.731,-0.427,-0.125,-25.208,8.362,7.690
0.661,-0.420,-0.169,-22.644,0.061,13.306
0.584,-0.425,-0.222,-19.470,-8.728,17.639
0.597,-0.430,-0.282,-20.874,-17.456,16.479
0.602,-0.403,-0.317,-30.090,-26.672,16.479
0.624,-0.353,-0.321,-34.363,-41.077,14.832
0.659,-0.317,-0.319,-8.850,-63.416,5.737
0.687,-0.298,-0.315,41.687,-92.285,-8.118
0.714,-0.294,-0.302,96.375,-126.343,-23.987
0.722,-0.307,-0.272,145.569,-163.269,-42.358
0.705,-0.332,-0.221,185.120,-199.463,-63.538
0.669,-0.359,-0.148,211.609,-233.337,-83.923
0.642,-0.399,-0.068,227.356,-265.076,-102.234
0.656,-0.451,0.009,232.971,-294.312,-119.446
0.646,-0.501,0.101,224.182,-322.510,-134.399
0.642,-0.554,0.205,202.148,-351.624,-146.912
0.618,-0.616,0.325,172.424,-380.066,-159.790
0.570,-0.683,0.458,140.869,-408.142,-173.218
0.437,-0.756,0.582,116.699,-435.913,-186.646
0.248,-0.843,0.698,103.821,-457.581,-198.914
0.063,-0.934,0.787,96.191,-467.590,-209.900
-0.085,-1.019,0.875,79.224,-461.060,-214.661
-0.140,-1.093,0.966,46.814,-440.125,-211.975
-0.152,-1.145,1.060,12.024,-409.363,-201.111
-0.117,-1.184,1.139,-9.399,-369.690,-181.702
-0.086,-1.226,1.207,-14.709,-318.542,-156.311
-0.022,-1.264,1.241,-10.498,-261.292,-128.174
0.029,-1.288,1.246,-6.226,-200.012,-97.290
0.054,-1.283,1.232,-7.507,-136.292,-62.195
0.071,-1.236,1.197,-11.169,-73.730,-26.245
0.091,-1.153,1.125,-7.751,-16.418,6.531
0.119,-1.073,1.024,4.883,34.546,33.508
0.120,-0.995,0.914,11.536,80.444,54.932
0.118,-0.901,0.814,-0.488,119.324,70.740
0.130,-0.802,0.733,-19.348,148.621,80.872
0.147,-0.717,0.657,-28.748,169.312,82.947

-0.887,-1.248,0.524,-70.801,193.542,-522.705
-0.855,-1.351,0.515,-60.486,184.265,-503.540
-0.824,-1.446,0.510,-52.429,173.279,-469.849
-0.732,-1.527,0.503,-43.884,162.109,-421.997
-0.620,-1.596,0.500,-36.255,150.146,-363.464
-0.508,-1.637,0.497,-27.344,136.719,-296.326
-0.413,-1.652,0.482,-13.306,121.948,-222.656
-0.367,-1.635,0.458,4.272,107.361,-146.667
-0.318,-1.588,0.429,19.836,91.187,-69.824
-0.246,-1.494,0.405,31.128,72.388,5.371
-0.215,-1.370,0.392,48.096,50.171,74.707
-0.233,-1.250,0.381,78.735,23.621,134.277
-0.275,-1.139,0.370,112.976,-6.409,183.472
-0.303,-1.040,0.360,137.634,-38.208,222.839
-0.309,-0.954,0.357,147.339,-68.848,252.625
-0.313,-0.867,0.365,143.799,-95.581,273.499
-0.298,-0.786,0.382,132.202,-118.103,284.790
-0.273,-0.708,0.408,119.568,-136.292,286.865
-0.245,-0.635,0.436,110.413,-152.039,281.189
-0.211,-0.572,0.464,107.788,-166.199,268.494
-0.153,-0.529,0.492,111.572,-177.612,249.207
-0.122,-0.504,0.510,118.103,-185.364,222.656
-0.153,-0.495,0.531,121.216,-188.416,190.063
-0.161,-0.495,0.555,113.525,-187.561,155.762
-0.119,-0.503,0.591,95.398,-183.228,119.995
-0.093,-0.516,0.637,74.463,-175.171,82.764
-0.066,-0.546,0.679,56.396,-163.269,46.082
-0.058,-0.594,0.716,40.894,-145.935,10.376
-0.056,-0.655,0.742,22.705,-123.840,-23.499
-0.078,-0.714,0.764,-2.502,-96.924,-53.589
-0.106,-0.760,0.788,-32.349,-67.566,-77.698
-0.133,-0.799,0.809,-55.176,-40.344,-94.849
-0.158,-0.843,0.809,-62.256,-16.724,-106.934
-0.177,-0.895,0.790,-59.326,5.310,-115.356
-0.197,-0.947,0.765,-59.570,26.184,-119.934
-0.212,-0.991,0.744,-66.650,45.166,-122.559
-0.217,-1.029,0.732,-74.951,59.998,-124.939
-0.227,-1.072,0.730,-77.881,69.214,-127.258
-0.228,-1.125,0.732,-71.838,71.899,-128.540
-0.255,-1.183,0.731,-58.411,71.960,-126.404
-0.328,-1.250,0.715,-44.861,73.425,-118.408
-0.349,-1.320,0.683,-39.307,80.811,-105.774
-0.319,-1.383,0.653,-49.561,91.553,-88.989
-0.298,-1.442,0.626,-68.359,100.525,-67.322
-0.218,-1.512,0.602,-83.679,104.248,-42.908
-0.233,-1.605,0.579,-88.562,99.854,-17.212
-0.396,-1.678,0.576,-85.388,88.623,9.277
-0.520,-1.724,0.580,-75.989,73.181,48.523
-0.532,-1.735,0.579,-51.758,56.519,107.849
-0.523,-1.686,0.567,-9.705,39.063,186.096
-0.551,-1.577,0.523,45.715,21.729,276.306
-0.595,-1.442,0.465,100.281,4.761,360.779
-0.626,-1.316,0.423,131.714,-13.855,431.152
-0.667,-1.176,0.406,134.033,-35.522,487.671
-0.728,-1.043,0.392,123.596,-54.260,532.410
-0.690,-0.938,0.379,106.567,-67.139,564.758
-0.639,-0.809,0.379,79.712,-75.378,589.111
-0.655,-0.657,0.387,55.664,-82.031,615.601
-0.635,-0.506,0.391,50.598,-89.050,638.855
-0.602,-0.359,0.390,66.101,-100.403,655.334
-0.557,-0.210,0.389,95.886,-121.216,664.673
-0.489,-0.068,0.391,136.475,-151.428,664.490
-0.453,0.068,0.412,185.425,-188.049,654.236
-0.375,0.190,0.450,241.089,-230.225,632.080
-0.310,0.271,0.501,301.819,-276.245,597.900
-0.218,0.300,0.568,352.661,-323.914,550.720
-0.135,0.293,0.660,370.239,-367.859,494.019
-0.051,0.255,0.778,343.750,-397.522,433.350
0.020,0.227,0.910,272.827,-408.875,371.094
0.113,0.240,1.040,178.101,-402.466,312.256
0.229,0.269,1.176,90.942,-379.639,258.301
0.292,0.296,1.281,33.447,-345.947,206.909
0.389,0.305,1.370,9.399,-306.091,156.189
0.462,0.272,1.424,9.094,-259.949,104.919
0.483,0.212,1.450,9.216,-214.539,54.932
0.493,0.152,1.456,-5.188,-166.931,9.705
0.501,0.110,1.456,-36.804,-117.615,-28.870
0.485,0.083,1.450,-70.801,-68.970,-62.988
0.453,0.037,1.418,-90.027,-23.254,-94.543
0.403,-0.027,1.369,-97.656,15.991,-123.596
0.358,-0.090,1.311,-104.004,50.232,-148.499
0.344,-0.152,1.240,-109.009,80.139,-167.480
0.333,-0.209,1.163,-114.929,105.896,-180.847
0.323,-0.257,1.094,-121.643,125.061,-189.636
0.318,-0.303,1.027,-124.573,138.123,-194.275
0.308,-0.345,0.968,-125.122,146.790,-194.519
0.310,-0.382,0.912,-122.559,151.733,-191.101
0.341,-0.413,0.863,-114.441,153.442,-184.204
0.370,-0.442,0.816,-100.525,152.832,-173.950
0.387,-0.471,0.767,-84.106,151.001,-161.072
0.409,-0.493,0.719,-71.106,147.217,-146.606
0.432,-0.505,0.677,-61.829,140.991,-130.615
0.439,-0.511,0.640,-52.551,132.385,-112.854
0.457,-0.514,0.606,-40.344,121.826,-93.445
0.503,-0.513,0.574,-26.123,109.131,-73.364
0.549,-0.510,0.545,-12.024,94.910,-53.955
0.576,-0.510,0.517,-1.465,78.491,-36.072
0.585,-0.499,0.505,0.854,59.631,-18.921
0.600,-0.463,0.513,-0.610,39.917,-2.563
0.622,-0.419,0.528,7.568,21.057,11.292

-1.253,-1.309,0.362,-194.641,175.842,-759.644
-1.147,-1.499,0.398,-158.569,121.338,-731.445
-1.125,-1.702,0.419,-114.807,77.454,-685.059
-1.097,-1.893,0.447,-89.478,46.814,-619.324
-1.045,-2.039,0.498,-86.670,23.193,-536.987
-0.943,-2.145,0.559,-84.351,2.197,-442.627
-0.853,-2.211,0.610,-62.073,-16.968,-338.318
-0.767,-2.238,0.631,-22.461,-34.241,-226.257
-0.706,-2.214,0.626,18.433,-46.631,-108.215
-0.713,-2.089,0.612,48.096,-53.955,8.301
-0.703,-1.900,0.583,72.205,-59.326,115.051
-0.705,-1.711,0.541,98.389,-64.392,210.266
-0.734,-1.522,0.510,110.352,-70.374,293.152
-0.760,-1.331,0.500,105.774,-78.613,361.328
-0.770,-1.147,0.495,98.083,-89.417,414.307
-0.772,-0.976,0.495,95.764,-100.830,452.637
-0.751,-0.820,0.495,99.243,-112.671,476.379
-0.670,-0.683,0.484,105.591,-122.620,484.314
-0.565,-0.560,0.479,107.727,-128.784,477.356
-0.446,-0.445,0.474,102.478,-135.254,457.886
-0.307,-0.333,0.485,94.360,-140.503,427.429
-0.184,-0.241,0.501,90.515,-145.447,387.146
-0.071,-0.172,0.520,93.628,-149.292,336.182
0.022,-0.126,0.543,97.961,-150.635,277.100
0.104,-0.105,0.574,95.642,-148.132,214.294
0.155,-0.109,0.612,85.144,-140.747,148.499
0.187,-0.143,0.659,67.871,-128.113,81.543
0.166,-0.212,0.712,46.204,-111.023,16.296
0.125,-0.302,0.754,22.949,-89.966,-42.786
0.100,-0.403,0.778,-0.549,-63.965,-93.689
0.053,-0.509,0.787,-23.499,-34.424,-135.986
0.003,-0.616,0.782,-46.082,-4.211,-171.997
-0.048,-0.720,0.768,-67.200,24.475,-202.698
-0.115,-0.818,0.754,-84.290,50.049,-227.539
-0.190,-0.909,0.740,-93.567,71.472,-245.178
-0.245,-1.000,0.721,-91.553,89.172,-254.578
-0.274,-1.098,0.693,-82.825,102.783,-258.423
-0.309,-1.195,0.667,-76.111,112.427,-257.996
-0.319,-1.281,0.649,-75.806,117.065,-249.817
-0.333,-1.357,0.641,-75.195,116.821,-233.337
-0.385,-1.421,0.637,-66.406,113.647,-210.327
-0.385,-1.484,0.630,-48.828,108.887,-180.786
-0.395,-1.545,0.620,-28.687,102.966,-146.973
-0.383,-1.602,0.613,-15.259,96.558,-111.145
-0.364,-1.640,0.609,-11.597,90.881,-71.899
-0.365,-1.679,0.607,-11.597,86.670,-30.701
-0.433,-1.729,0.592,-14.221,83.923,7.019
-0.502,-1.791,0.567,-28.198,83.557,39.124
-0.550,-1.829,0.559,-61.829,85.999,69.092
-0.583,-1.786,0.594,-99.487,90.820,109.314
-0.630,-1.682,0.627,-94.666,99.670,169.617
-0.621,-1.619,0.562,-29.419,112.305,239.319
-0.567,-1.566,0.465,24.353,122.253,301.147
-0.530,-1.442,0.438,11.780,127.563,359.131
-0.531,-1.275,0.444,-9.338,129.333,415.466
-0.558,-1.137,0.421,10.681,127.197,471.313
-0.594,-1.006,0.380,43.091,120.911,527.222
-0.672,-0.870,0.348,57.861,112.427,583.801
-0.702,-0.712,0.314,54.504,104.309,637.207
-0.736,-0.539,0.295,39.856,97.046,684.692
-0.781,-0.360,0.281,24.414,90.027,722.900
-0.754,-0.175,0.263,16.357,81.116,747.986
-0.676,0.009,0.244,18.860,69.397,763.123
-0.594,0.203,0.228,32.959,53.528,767.090
-0.450,0.392,0.223,61.401,33.264,759.277
-0.302,0.574,0.225,102.417,5.615,739.929
-0.192,0.731,0.267,147.278,-29.785,711.060
-0.077,0.905,0.320,193.604,-78.552,667.542
0.004,1.031,0.399,241.699,-130.493,614.624
0.071,1.124,0.509,274.963,-176.697,551.636
0.143,1.189,0.641,284.119,-214.233,480.103
0.234,1.215,0.776,270.752,-240.601,401.367
0.360,1.208,0.904,238.525,-250.427,318.237
0.513,1.189,1.011,189.758,-242.126,233.948
0.650,1.157,1.123,132.019,-219.788,151.306
0.720,1.105,1.212,75.806,-194.641,71.899
0.729,1.026,1.296,28.137,-164.307,-3.296
0.709,0.920,1.346,-7.141,-130.859,-72.693
0.616,0.798,1.374,-33.142,-92.773,-133.911
0.521,0.667,1.374,-48.950,-52.124,-185.303
0.439,0.528,1.349,-53.406,-11.169,-226.746
0.400,0.390,1.301,-48.340,28.625,-257.507
0.369,0.253,1.227,-39.368,67.993,-278.076
0.352,0.129,1.138,-34.973,104.797,-289.062
0.352,0.017,1.047,-38.818,134.949,-291.504
0.372,-0.080,0.953,-48.157,157.349,-287.292
0.401,-0.163,0.860,-60.913,173.645,-276.611
0.429,-0.228,0.782,-75.256,183.899,-260.498
0.490,-0.276,0.712,-82.153,188.843,-241.272
0.534,-0.316,0.639,-76.904,190.125,-220.703
0.559,-0.346,0.570,-64.636,188.843,-198.853
0.595,-0.372,0.504,-52.368,183.838,-174.805
0.638,-0.394,0.439,-42.419,176.086,-149.719
0.666,-0.404,0.381,-35.645,167.542,-124.939
0.694,-0.402,0.329,-29.419,156.250,-99.121
0.736,-0.393,0.276,-19.348,143.799,-73.120
0.762,-0.378,0.227,-7.324,129.639,-48.462
0.789,-0.355,0.184,0.916,112.000,-24.719
0.818,-0.318,0.156,6.165,92.041,-2.869
0.853,-0.276,0.139,12.512,71.045,15.442

0.598,-0.179,1.993,68.787,9.399,-16.602
0.515,-0.175,1.961,36.621,124.207,-23.193
0.372,-0.176,1.852,15.381,232.971,-31.189
0.236,-0.167,1.714,1.099,327.942,-41.260
0.103,-0.166,1.544,3.845,411.072,-50.171
-0.097,-0.170,1.333,23.987,488.586,-52.673
-0.350,-0.163,1.103,44.617,561.829,-45.593
-0.520,-0.136,0.852,59.937,628.113,-29.785
-0.585,-0.108,0.601,78.552,691.833,-7.690
-0.596,-0.072,0.262,96.436,742.065,14.404
-0.530,-0.045,-0.065,99.976,773.865,33.569
-0.434,-0.023,-0.380,85.632,789.124,44.189
-0.348,0.000,-0.671,59.021,790.100,40.527
-0.275,0.010,-0.886,32.837,785.706,27.222
-0.194,0.005,-1.139,3.723,752.991,11.353
-0.118,-0.009,-1.345,-29.053,713.806,-11.841
-0.075,-0.045,-1.508,-58.167,670.654,-39.124
-0.072,-0.096,-1.650,-82.581,619.080,-68.726
-0.076,-0.168,-1.758,-100.281,563.843,-95.520
-0.058,-0.263,-1.856,-113.159,504.517,-117.249
-0.018,-0.371,-1.931,-126.770,436.401,-133.850
0.001,-0.485,-1.967,-138.733,365.723,-144.287
0.010,-0.596,-1.972,-136.841,292.480,-149.658
0.007,-0.705,-1.961,-116.333,218.933,-149.353
0.009,-0.796,-1.925,-81.604,147.766,-142.456
0.035,-0.862,-1.866,-40.222,77.087,-126.648
0.096,-0.889,-1.774,-1.526,8.911,-103.821
0.095,-0.878,-1.644,39.246,-53.650,-77.332
0.086,-0.845,-1.522,82.214,-108.948,-50.842
0.095,-0.793,-1.388,101.685,-154.846,-22.705
0.118,-0.724,-1.234,91.614,-190.857,5.432
0.141,-0.647,-1.080,74.463,-218.445,30.823
0.183,-0.570,-0.938,66.345,-238.770,51.697
0.240,-0.499,-0.804,67.261,-254.333,68.054
0.288,-0.425,-0.706,71.777,-269.470,79.163
0.331,-0.361,-0.651,77.271,-274.292,86.243
0.397,-0.307,-0.526,78.796,-253.662,90.637
0.475,-0.250,-0.437,70.923,-232.849,91.858
0.541,-0.188,-0.355,62.500,-216.980,89.722
0.594,-0.140,-0.286,63.904,-196.228,83.496
0.636,-0.101,-0.234,71.655,-170.288,73.608
0.679,-0.078,-0.203,76.294,-141.418,62.073
0.720,-0.062,-0.187,71.716,-110.413,49.316
0.730,-0.053,-0.185,54.688,-77.759,36.743
0.736,-0.052,-0.203,31.555,-42.664,24.292
0.741,-0.060,-0.248,7.996,-6.165,11.719
0.712,-0.081,-0.326,-13.977,29.663,-0.549
0.670,-0.104,-0.419,-31.311,64.392,-12.024
0.637,-0.125,-0.509,-40.833,95.947,-22.095
0.585,-0.151,-0.602,-40.039,119.629,-30.151
0.534,-0.184,-0.696,-31.128,137.024,-35.828
0.500,-0.219,-0.793,-25.146,148.376,-38.086
0.458,-0.252,-0.891,-30.518,154.968,-37.170
0.421,-0.282,-0.994,-47.241,158.691,-33.630
0.370,-0.314,-1.107,-72.144,160.156,-26.672
0.295,-0.349,-1.209,-106.934,158.142,-15.564
0.221,-0.381,-1.314,-150.574,147.217,-1.587
0.148,-0.412,-1.393,-194.458,131.042,14.893
0.085,-0.437,-1.447,-224.854,102.600,33.630
0.086,-0.467,-1.478,-231.079,56.885,54.077
0.102,-0.480,-1.486,-214.722,-0.183,76.111
0.109,-0.467,-1.457,-181.152,-60.120,98.450
0.133,-0.424,-1.423,-127.930,-122.864,118.713
0.103,-0.363,-1.371,-64.697,-184.570,133.118
0.063,-0.293,-1.273,-15.198,-246.460,145.142
0.056,-0.240,-1.155,20.752,-304.321,151.489
0.181,-0.200,-1.040,52.917,-356.628,145.508
0.304,-0.169,-0.923,76.233,-407.898,132.263
0.386,-0.156,-0.788,89.661,-457.703,114.502
0.465,-0.143,-0.641,95.703,-502.930,93.506
0.524,-0.136,-0.480,97.778,-543.518,70.923
0.520,-0.115,-0.289,96.252,-582.092,47.119
0.498,-0.101,-0.083,97.473,-614.319,22.095
0.417,-0.090,0.147,111.206,-636.047,-7.202
0.351,-0.105,0.370,144.104,-646.790,-41.809
0.348,-0.167,0.553,189.453,-645.020,-83.252
0.360,-0.272,0.734,222.778,-622.070,-127.258
0.363,-0.408,0.863,228.943,-584.778,-166.260
0.370,-0.565,1.021,206.482,-525.269,-195.557
0.380,-0.708,1.172,154.785,-456.116,-210.205
0.414,-0.819,1.281,93.201,-390.686,-209.717
0.438,-0.901,1.383,41.016,-320.679,-196.960
0.477,-0.963,1.443,11.475,-251.221,-176.147
0.536,-1.005,1.453,2.380,-182.678,-150.574
0.510,-1.038,1.427,2.075,-113.647,-122.009
0.521,-1.051,1.359,-1.953,-49.805,-92.102
0.555,-1.027,1.252,-15.381,9.888,-60.669
0.584,-0.959,1.118,-33.203,67.200,-30.884
0.584,-0.866,0.975,-45.288,118.103,-6.348
0.575,-0.773,0.831,-49.194,159.241,13.306
0.577,-0.690,0.703,-49.194,190.186,29.175
0.610,-0.626,0.587,-46.936,209.351,39.612
0.659,-0.576,0.477,-44.189,216.370,43.884
0.703,-0.535,0.375,-42.908,215.088,43.579
0.730,-0.503,0.289,-42.969,209.106,40.344
0.750,-0.480,0.219,-42.542,198.120,35.461
0.768,-0.460,0.162,-41.016,182.007,29.663
0.783,-0.447,0.115,-37.537,162.476,23.804
0.788,-0.439,0.079,-32.227,141.968,18.433
0.786,-0.433,0.055,-25.696,121.521,14.099

-0.422,-1.470,0.802,-126.465,-82.703,-371.765
-0.469,-1.523,0.813,-121.460,-67.078,-339.783
-0.492,-1.560,0.813,-119.202,-44.983,-303.833
-0.494,-1.577,0.810,-116.455,-20.447,-264.404
-0.487,-1.582,0.789,-106.812,3.784,-222.046
-0.466,-1.575,0.753,-88.562,27.832,-177.917
-0.446,-1.549,0.706,-68.115,49.744,-133.179
-0.420,-1.504,0.657,-48.950,67.383,-88.562
-0.388,-1.442,0.602,-30.640,79.346,-44.861
-0.341,-1.371,0.545,-11.475,85.022,-3.174
-0.306,-1.288,0.492,9.033,85.693,37.292
-0.286,-1.192,0.442,30.273,82.031,76.416
-0.258,-1.093,0.400,51.331,73.608,112.366
-0.241,-0.998,0.367,71.289,61.523,142.578
-0.223,-0.917,0.333,86.609,45.593,166.016
-0.186,-0.844,0.304,92.773,27.710,180.969
-0.153,-0.771,0.287,90.088,9.766,187.805
-0.121,-0.701,0.284,83.252,-7.446,186.829
-0.087,-0.637,0.290,77.881,-25.330,178.223
-0.050,-0.589,0.302,76.294,-43.396,162.720
-0.014,-0.560,0.318,77.026,-60.486,140.259
0.013,-0.551,0.342,75.562,-75.378,111.511
0.027,-0.557,0.374,68.909,-87.646,78.247
0.016,-0.581,0.415,59.204,-95.703,43.396
-0.005,-0.621,0.454,49.133,-98.511,11.230
-0.025,-0.673,0.485,38.452,-95.337,-16.724
-0.051,-0.726,0.514,23.315,-87.036,-39.917
-0.070,-0.774,0.544,5.249,-75.745,-57.495
-0.086,-0.821,0.571,-9.583,-62.683,-71.045
-0.103,-0.867,0.587,-18.005,-48.950,-81.848
-0.117,-0.916,0.596,-21.484,-34.912,-90.515
-0.134,-0.969,0.598,-23.804,-21.179,-97.717
-0.143,-1.026,0.598,-28.015,-8.545,-104.431
-0.164,-1.093,0.598,-36.621,2.136,-110.962
-0.195,-1.157,0.600,-51.758,11.475,-115.662
-0.222,-1.224,0.605,-68.542,21.240,-116.394
-0.250,-1.302,0.602,-83.984,32.349,-112.610
-0.281,-1.366,0.597,-102.905,46.570,-103.271
-0.344,-1.406,0.582,-126.282,64.392,-85.266
-0.359,-1.447,0.541,-146.729,91.919,-61.096
-0.347,-1.476,0.486,-173.584,133.423,-33.508
-0.448,-1.464,0.430,-219.788,182.678,-3.418
-0.500,-1.455,0.367,-272.644,234.009,23.804
-0.536,-1.434,0.310,-320.374,282.837,43.030
-0.525,-1.372,0.279,-350.952,316.833,63.843
-0.469,-1.298,0.260,-338.806,322.937,96.558
-0.390,-1.249,0.219,-271.057,304.016,140.198
-0.231,-1.207,0.154,-167.786,268.555,187.866
-0.111,-1.135,0.081,-66.345,219.177,246.216
-0.031,-1.019,0.035,8.972,158.508,315.796
-0.044,-0.856,0.023,64.087,87.158,388.123
-0.157,-0.683,0.039,116.272,8.728,456.421
-0.322,-0.517,0.069,169.373,-73.975,511.047
-0.464,-0.380,0.111,215.820,-157.349,546.753
-0.539,-0.262,0.168,243.469,-237.061,559.448
-0.560,-0.161,0.244,252.563,-308.044,552.002
-0.557,-0.064,0.344,250.000,-372.253,528.442
-0.551,0.010,0.458,249.573,-434.326,491.943
-0.535,0.055,0.582,262.146,-490.723,440.186
-0.561,0.060,0.717,281.250,-538.086,375.122
-0.596,0.017,0.856,294.006,-574.829,302.612
-0.624,-0.054,0.988,284.912,-598.450,227.234
-0.674,-0.136,1.121,245.544,-603.271,155.640
-0.722,-0.205,1.265,179.321,-589.417,93.628
-0.738,-0.245,1.408,100.952,-561.523,44.800
-0.736,-0.261,1.539,32.349,-519.897,7.202
-0.708,-0.271,1.665,-11.536,-471.313,-22.461
-0.675,-0.295,1.768,-24.292,-411.926,-50.354
-0.604,-0.339,1.826,-15.991,-347.534,-77.332
-0.511,-0.401,1.850,-6.531,-274.597,-104.065
-0.415,-0.469,1.848,-9.583,-193.665,-131.042
-0.398,-0.523,1.819,-27.344,-108.704,-156.616
-0.400,-0.563,1.757,-54.260,-25.513,-177.795
-0.402,-0.593,1.666,-78.613,51.575,-195.923
-0.421,-0.609,1.544,-93.018,121.155,-212.280
-0.470,-0.622,1.417,-95.642,180.603,-225.891
-0.516,-0.637,1.278,-89.539,230.164,-234.558
-0.541,-0.658,1.139,-79.834,268.066,-238.159
-0.571,-0.674,1.007,-72.815,294.495,-236.084
-0.571,-0.689,0.886,-68.237,309.143,-227.478
-0.532,-0.701,0.769,-59.998,311.951,-213.440
-0.490,-0.723,0.661,-45.776,305.786,-194.702
-0.417,-0.746,0.561,-32.043,288.696,-171.875
-0.350,-0.760,0.480,-23.865,266.663,-145.569
-0.281,-0.765,0.419,-20.386,237.671,-117.065
-0.218,-0.756,0.380,-16.846,200.867,-87.036
-0.169,-0.745,0.354,-6.104,158.264,-57.007
-0.128,-0.731,0.345,11.292,112.610,-28.809
-0.104,-0.712,0.349,31.128,65.979,-2.075
-0.102,-0.682,0.378,47.974,20.630,21.973
-0.105,-0.641,0.438,61.890,-20.020,43.213
-0.123,-0.611,0.501,79.407,-56.580,60.791
-0.136,-0.601,0.559,96.741,-87.097,73.120
-0.154,-0.593,0.625,101.379,-110.474,80.322
-0.172,-0.581,0.695,93.445,-127.625,84.900
-0.199,-0.567,0.770,81.970,-139.465,86.548
-0.217,-0.556,0.839,72.693,-146.545,85.022
-0.238,-0.548,0.910,64.880,-148.865,81.665
-0.259,-0.538,0.973,57.739,-148.132,76.843
-0.267,-0.533,1.029,50.293,-142.700,70.862

-0.263,-0.831,1.444,-249.146,182.617,-130.554
-0.329,-0.810,1.460,-291.077,218.872,-141.541
-0.433,-0.762,1.499,-317.078,250.305,-143.372
-0.492,-0.725,1.506,-301.025,279.663,-132.080
-0.553,-0.708,1.460,-247.681,314.636,-105.042
-0.532,-0.687,1.348,-190.735,355.408,-60.852
-0.523,-0.630,1.209,-152.771,399.719,-10.437
-0.557,-0.551,1.066,-130.493,439.148,39.795
-0.519,-0.499,0.921,-103.821,469.482,86.792
-0.467,-0.440,0.770,-73.730,489.563,127.991
-0.483,-0.356,0.640,-46.997,497.925,169.495
-0.404,-0.269,0.517,-9.155,492.615,210.144
-0.294,-0.209,0.407,47.241,478.882,247.131
-0.241,-0.138,0.308,97.717,451.172,283.875
-0.186,-0.057,0.244,134.399,414.062,319.275
-0.195,0.042,0.175,166.199,373.840,350.830
-0.164,0.124,0.090,207.092,340.210,379.639
-0.195,0.141,0.006,219.055,300.842,403.259
-0.050,0.266,-0.037,152.954,255.432,417.603
-0.002,0.414,-0.019,71.411,217.773,435.425
0.117,0.537,-0.000,51.392,182.983,435.120
0.329,0.644,0.001,75.623,134.888,417.786
0.469,0.739,0.016,120.239,85.938,393.127
0.575,0.808,0.047,171.265,40.527,362.976
0.676,0.856,0.102,213.440,-3.174,327.942
0.669,0.885,0.174,232.788,-44.678,289.062
0.653,0.902,0.256,225.830,-80.383,249.573
0.609,0.922,0.351,194.458,-109.741,210.449
0.581,0.942,0.450,149.780,-133.240,169.739
0.558,0.949,0.539,110.291,-150.879,126.648
0.554,0.933,0.619,82.214,-161.865,82.275
0.553,0.902,0.690,60.974,-167.419,39.124
0.579,0.864,0.758,42.908,-168.030,-0.916
0.587,0.812,0.819,30.151,-166.687,-37.598
0.578,0.746,0.876,21.179,-164.124,-71.472
0.566,0.671,0.927,11.597,-161.682,-101.257
0.503,0.593,0.983,0.488,-158.691,-125.061
0.443,0.519,1.030,-11.108,-153.442,-143.738
0.398,0.450,1.070,-20.142,-143.066,-158.447
0.341,0.378,1.102,-24.780,-127.014,-169.983
0.325,0.308,1.123,-25.818,-108.826,-177.734
0.272,0.238,1.126,-23.743,-89.233,-182.190
0.273,0.172,1.124,-22.217,-68.237,-181.885
0.318,0.120,1.115,-22.461,-49.194,-176.697
0.312,0.068,1.100,-18.311,-29.663,-168.884
0.326,0.016,1.077,-12.878,-12.451,-158.325
0.353,-0.026,1.050,-12.207,1.770,-145.264
0.374,-0.056,1.026,-15.320,14.282,-129.822
0.381,-0.075,1.001,-17.334,25.085,-112.427
0.390,-0.085,0.976,-14.282,34.546,-93.079
0.392,-0.089,0.942,-5.188,42.480,-72.754
0.392,-0.083,0.905,5.371,48.828,-51.880
0.379,-0.060,0.869,15.320,53.467,-30.457
0.352,-0.016,0.843,26.123,54.810,-8.667
0.344,0.040,0.825,41.748,52.063,12.695
0.379,0.090,0.808,65.186,45.288,31.677
0.416,0.133,0.800,89.355,36.011,44.800
0.434,0.190,0.822,104.004,25.757,52.429
0.380,0.264,0.877,113.037,17.334,56.885
0.300,0.344,0.959,128.784,12.268,57.251
0.209,0.418,1.054,154.175,9.277,55.603
0.108,0.459,1.156,190.247,11.292,49.500
0.092,0.448,1.227,230.347,22.705,34.363
0.114,0.415,1.269,242.310,45.410,12.451
0.167,0.409,1.299,199.829,77.271,-11.475
0.267,0.432,1.310,124.390,114.563,-41.870
0.272,0.485,1.297,51.025,154.419,-81.177
0.246,0.533,1.256,3.357,192.322,-122.925
0.268,0.520,1.167,-9.094,226.318,-168.945
0.357,0.438,1.033,-12.512,259.155,-219.116
0.406,0.335,0.886,-40.527,292.053,-272.583
0.369,0.249,0.745,-99.854,323.669,-325.256
0.296,0.177,0.619,-160.950,350.037,-377.075
0.232,0.090,0.504,-198.364,365.051,-425.232
0.166,-0.025,0.401,-208.984,366.577,-468.994
0.129,-0.164,0.306,-206.665,355.347,-506.897
0.092,-0.315,0.243,-204.651,335.327,-536.255
0.080,-0.472,0.194,-207.764,303.589,-554.993
0.088,-0.632,0.175,-214.294,266.846,-563.599
0.098,-0.791,0.178,-219.971,229.004,-565.186
0.063,-0.946,0.200,-218.445,192.871,-563.354
0.007,-1.093,0.235,-204.956,160.461,-557.007
-0.025,-1.241,0.265,-180.298,132.080,-540.100
-0.022,-1.389,0.288,-148.804,108.032,-510.803
-0.009,-1.531,0.299,-115.601,88.562,-471.985
0.002,-1.656,0.302,-87.280,74.341,-423.950
0.046,-1.756,0.309,-70.251,64.026,-366.089
0.112,-1.811,0.318,-59.265,55.420,-297.852
0.158,-1.833,0.324,-43.701,46.936,-223.450
0.190,-1.826,0.316,-18.799,38.208,-145.569
0.204,-1.787,0.290,10.132,28.259,-69.031
0.211,-1.692,0.262,37.109,17.090,3.235
0.232,-1.549,0.248,64.270,4.822,68.665
0.251,-1.409,0.229,98.877,-10.437,125.610
0.257,-1.285,0.211,132.629,-29.297,171.387
0.276,-1.172,0.200,153.503,-49.622,205.994
0.303,-1.067,0.202,158.752,-69.519,230.225
0.322,-0.966,0.216,154.175,-88.196,245.605
0.339,-0.868,0.243,145.264,-104.370,254.517
0.353,-0.772,0.274,137.939,-117.676,257.751

-0.012,-1.545,1.156,-159.424,39.185,-187.561
-0.042,-1.594,1.274,-197.327,65.857,-204.102
-0.192,-1.624,1.379,-207.458,89.111,-203.796
-0.397,-1.670,1.457,-178.833,117.737,-186.523
-0.409,-1.709,1.492,-134.277,154.114,-154.602
-0.435,-1.754,1.468,-92.102,208.252,-102.966
-0.595,-1.749,1.357,-66.162,283.264,-40.527
-0.756,-1.663,1.201,-68.604,371.948,27.405
-0.755,-1.496,1.012,-73.669,463.440,97.229
-0.809,-1.323,0.804,-50.720,545.593,159.363
-0.830,-1.159,0.591,-9.583,609.802,219.666
-0.822,-0.981,0.375,29.297,652.649,282.166
-0.888,-0.814,0.172,69.153,683.899,346.130
-0.969,-0.650,-0.024,106.079,698.120,400.757
-0.956,-0.501,-0.204,131.287,691.772,440.369
-0.896,-0.346,-0.384,140.930,672.791,466.370
-0.779,-0.203,-0.527,132.935,651.123,484.802
-0.563,-0.072,-0.650,115.479,622.131,489.258
-0.499,0.065,-0.782,92.529,582.031,486.267
-0.457,0.195,-0.887,62.866,551.025,484.741
-0.340,0.307,-0.994,36.072,521.545,473.572
-0.193,0.414,-1.100,24.048,488.403,449.524
-0.054,0.506,-1.203,23.804,448.669,418.152
0.059,0.589,-1.289,30.334,406.372,383.362
0.186,0.658,-1.367,36.621,361.450,346.802
0.329,0.714,-1.440,39.246,311.768,308.899
0.427,0.759,-1.491,33.447,260.559,268.433
0.456,0.796,-1.516,16.785,208.923,226.746
0.470,0.825,-1.518,-3.906,157.043,181.946
0.510,0.837,-1.501,-17.273,105.774,135.193
0.554,0.829,-1.460,-15.320,54.016,86.548
0.591,0.798,-1.386,1.282,5.249,37.903
0.623,0.736,-1.295,26.733,-38.208,-6.897
0.631,0.662,-1.205,53.162,-75.317,-47.913
0.615,0.581,-1.111,70.679,-104.675,-84.167
0.591,0.497,-1.015,72.754,-127.136,-113.098
0.534,0.416,-0.917,61.218,-143.250,-135.925
0.512,0.337,-0.822,43.152,-154.297,-153.748
0.523,0.257,-0.737,27.710,-160.583,-167.297
0.529,0.181,-0.659,20.142,-162.720,-177.185
0.558,0.101,-0.589,22.339,-160.889,-183.594
0.675,0.013,-0.534,30.090,-157.227,-187.500
0.755,-0.066,-0.481,37.415,-151.855,-188.232
0.768,-0.140,-0.424,40.527,-141.968,-180.054
0.771,-0.208,-0.373,38.818,-130.066,-164.551
0.762,-0.268,-0.334,30.945,-115.295,-144.287
0.725,-0.310,-0.296,13.611,-96.802,-119.995
0.706,-0.333,-0.269,-6.836,-75.378,-92.773
0.715,-0.339,-0.255,-22.278,-51.880,-64.392
0.727,-0.327,-0.258,-27.588,-27.771,-37.842
0.720,-0.296,-0.288,-22.461,-4.333,-14.038
0.674,-0.242,-0.343,-12.390,17.578,6.409
0.583,-0.166,-0.418,-6.836,37.598,25.269
0.504,-0.077,-0.501,-14.587,54.993,46.204
0.450,0.016,-0.590,-36.560,67.932,68.420
0.457,0.106,-0.693,-63.782,75.623,85.938
0.384,0.202,-0.791,-91.370,78.308,94.238
0.235,0.291,-0.874,-119.263,74.341,96.924
0.057,0.364,-0.951,-138.489,59.814,90.393
-0.080,0.412,-1.031,-144.775,34.180,72.083
-0.045,0.447,-1.103,-145.691,-2.075,42.725
0.108,0.465,-1.165,-140.564,-55.786,5.920
0.283,0.465,-1.190,-115.906,-124.084,-42.175
0.418,0.465,-1.188,-63.599,-198.669,-98.877
0.458,0.440,-1.108,8.057,-271.973,-149.109
0.486,0.390,-0.988,79.712,-347.046,-201.599
0.500,0.320,-0.855,145.813,-408.569,-256.409
0.550,0.240,-0.714,199.402,-454.773,-315.247
0.625,0.134,-0.564,239.014,-485.474,-374.878
0.637,-0.005,-0.411,262.756,-502.258,-432.495
0.564,-0.176,-0.244,259.766,-506.470,-484.253
0.354,-0.362,-0.062,217.834,-505.127,-523.987
0.068,-0.551,0.125,143.127,-498.901,-547.607
-0.223,-0.732,0.310,53.833,-487.000,-556.274
-0.471,-0.904,0.485,-27.832,-470.642,-553.833
-0.618,-1.081,0.636,-93.567,-449.585,-539.307
-0.522,-1.254,0.750,-161.865,-422.302,-510.193
-0.416,-1.373,0.920,-233.398,-378.662,-468.323
-0.318,-1.439,1.074,-274.597,-341.187,-421.143
-0.244,-1.501,1.201,-255.188,-305.237,-371.033
-0.165,-1.568,1.255,-184.326,-269.409,-321.228
-0.107,-1.650,1.262,-101.501,-229.431,-271.790
-0.031,-1.713,1.246,-45.471,-188.049,-221.497
0.018,-1.718,1.240,-29.968,-151.550,-169.189
0.030,-1.669,1.245,-33.020,-117.249,-115.540
0.010,-1.592,1.230,-26.672,-82.642,-62.561
-0.013,-1.502,1.154,-3.174,-46.509,-11.292
-0.015,-1.421,1.042,20.264,-11.292,38.147
-0.025,-1.334,0.931,27.039,22.034,85.327
-0.047,-1.231,0.832,20.264,52.002,124.329
-0.030,-1.126,0.742,14.465,75.806,154.053
0.043,-1.032,0.656,15.564,91.919,175.232
0.115,-0.938,0.578,20.569,98.328,189.026
0.197,-0.847,0.518,28.442,95.520,196.289
0.281,-0.768,0.472,39.978,84.412,196.899
0.350,-0.699,0.433,53.223,67.627,191.101
0.387,-0.638,0.405,63.293,48.767,181.091
0.408,-0.582,0.392,67.810,30.334,169.128
0.415,-0.534,0.388,65.491,14.526,155.518
0.431,-0.496,0.388,57.312,1.831,138.611

-0.265,-1.903,0.205,-210.388,65.979,-16.113
-0.050,-1.926,0.253,-188.477,46.143,75.623
-0.026,-1.880,0.255,-102.051,18.677,190.308
-0.071,-1.743,0.206,17.029,-14.343,314.941
-0.091,-1.535,0.160,125.732,-58.228,438.293
-0.214,-1.298,0.138,212.769,-115.967,551.453
-0.444,-1.034,0.159,280.090,-187.073,651.978
-0.688,-0.778,0.221,337.219,-271.545,736.511
-0.951,-0.528,0.324,388.916,-369.995,798.096
-1.238,-0.318,0.440,437.439,-477.600,828.247
-1.467,-0.158,0.579,476.807,-584.961,819.092
-1.591,-0.056,0.734,501.160,-685.791,775.513
-1.618,-0.023,0.905,506.775,-769.043,706.787
-1.550,-0.047,1.094,492.065,-821.045,615.906
-1.404,-0.094,1.280,450.745,-843.628,518.616
-1.327,-0.135,1.475,375.793,-839.478,430.664
-1.239,-0.145,1.686,279.297,-811.096,356.323
-1.153,-0.127,1.914,186.401,-758.911,295.349
-1.078,-0.092,2.114,115.662,-694.519,245.361
-0.901,-0.058,2.269,70.068,-617.310,202.698
-0.683,-0.036,2.400,47.424,-519.409,161.865
-0.552,-0.014,2.473,36.133,-407.227,120.544
-0.453,0.000,2.499,28.259,-287.476,78.979
-0.349,-0.002,2.460,24.292,-165.344,35.278
-0.262,-0.021,2.342,18.188,-46.875,-9.827
-0.180,-0.038,2.126,3.479,61.462,-57.373
-0.119,-0.068,1.893,-14.404,154.236,-108.948
-0.137,-0.111,1.670,-34.485,228.882,-159.790
-0.193,-0.162,1.468,-56.458,285.095,-207.336
-0.242,-0.223,1.283,-73.914,326.172,-248.047
-0.311,-0.293,1.111,-84.961,354.675,-281.677
-0.346,-0.363,0.960,-93.140,373.840,-306.824
-0.414,-0.428,0.827,-99.731,381.287,-322.144
-0.373,-0.496,0.698,-104.126,369.812,-328.308
-0.344,-0.562,0.598,-109.436,353.088,-327.271
-0.270,-0.621,0.517,-121.765,322.754,-318.604
-0.191,-0.680,0.466,-134.033,285.156,-304.626
-0.080,-0.739,0.428,-138.123,241.760,-284.973
-0.013,-0.794,0.416,-134.521,196.411,-260.620
0.060,-0.841,0.425,-123.657,150.696,-232.117
0.101,-0.885,0.449,-101.807,106.873,-199.097
0.128,-0.919,0.491,-75.745,64.087,-162.781
0.152,-0.940,0.550,-50.537,23.682,-124.146
0.151,-0.943,0.630,-24.048,-11.230,-84.351
0.160,-0.937,0.716,4.822,-42.114,-45.898
0.159,-0.919,0.802,30.823,-69.458,-10.437
0.139,-0.887,0.898,48.401,-93.750,22.522
0.118,-0.857,1.000,57.495,-115.601,51.941
0.117,-0.846,1.102,53.345,-136.353,75.317
0.092,-0.841,1.216,26.489,-154.358,91.309
0.079,-0.842,1.344,-21.851,-165.466,99.609
0.088,-0.848,1.467,-84.106,-170.898,97.717
0.092,-0.847,1.584,-152.039,-164.124,86.060
0.083,-0.825,1.688,-219.727,-139.160,71.350
0.056,-0.750,1.747,-281.433,-93.262,60.852
0.069,-0.644,1.782,-334.412,-23.254,57.312
0.057,-0.507,1.750,-367.493,61.584,55.481
0.012,-0.371,1.629,-369.446,155.457,52.490
-0.077,-0.259,1.462,-363.281,242.310,52.856
-0.181,-0.136,1.300,-376.099,315.918,57.556
-0.231,-0.013,1.147,-403.198,374.390,64.758
-0.244,0.092,0.988,-430.115,416.382,67.322
-0.196,0.197,0.831,-457.214,443.665,62.378
-0.130,0.294,0.689,-479.980,460.144,50.964
-0.087,0.380,0.552,-496.582,463.196,31.799
-0.102,0.436,0.404,-508.057,457.092,4.089
-0.151,0.477,0.257,-522.705,454.956,-29.907
-0.203,0.490,0.113,-537.659,457.336,-67.505
-0.193,0.474,-0.030,-542.358,454.285,-110.474
-0.119,0.413,-0.161,-542.297,443.481,-146.851
0.004,0.336,-0.301,-544.861,419.678,-176.819
0.103,0.263,-0.375,-546.997,395.264,-198.303
0.218,0.193,-0.460,-546.326,356.079,-205.688
0.312,0.131,-0.505,-534.607,317.505,-203.186
0.394,0.070,-0.536,-493.286,284.729,-195.435
0.496,0.006,-0.573,-417.969,254.517,-180.176
0.571,-0.051,-0.620,-321.533,228.699,-156.555
0.613,-0.098,-0.676,-221.680,205.688,-127.258
0.674,-0.133,-0.739,-131.592,184.570,-95.276
0.720,-0.156,-0.810,-61.340,162.476,-61.768
0.785,-0.159,-0.868,-24.048,139.893,-25.146
0.770,-0.120,-0.896,-18.250,116.638,12.451
0.775,-0.062,-0.904,-21.851,91.248,48.096
0.786,0.021,-0.895,-18.250,64.819,76.721
0.801,0.115,-0.859,-1.221,40.344,100.952
0.802,0.210,-0.820,39.856,16.602,119.507
0.803,0.282,-0.792,94.910,-6.470,128.845
0.774,0.346,-0.764,134.583,-31.128,130.920
0.751,0.409,-0.716,141.541,-53.101,133.240
0.756,0.473,-0.650,124.207,-70.801,135.315
0.740,0.536,-0.572,98.267,-84.534,135.010
0.717,0.593,-0.493,78.064,-93.201,131.958
0.715,0.641,-0.422,65.674,-97.046,127.075
0.695,0.686,-0.357,59.509,-97.351,119.995
0.662,0.722,-0.298,57.739,-95.703,109.558
0.644,0.748,-0.245,58.350,-91.309,96.130
0.623,0.765,-0.201,62.195,-84.290,79.895
0.604,0.774,-0.166,68.787,-74.097,61.584
0.596,0.771,-0.144,74.890,-62.073,43.579
0.616,0.760,-0.134,76.904,-48.767,27.649

-1.306,-0.388,1.534,64.880,-778.503,-476.562
-1.368,-0.601,1.716,69.275,-740.112,-482.971
-1.329,-0.797,1.882,48.706,-699.097,-466.248
-1.225,-0.935,2.079,3.113,-649.536,-427.734
-1.092,-0.997,2.272,-47.241,-593.506,-365.601
-1.009,-1.009,2.449,-68.298,-527.405,-292.480
-0.928,-1.014,2.556,-49.744,-452.332,-218.140
-0.775,-1.025,2.606,-10.437,-359.009,-143.494
-0.654,-1.020,2.583,20.935,-243.347,-72.327
-0.631,-0.960,2.477,27.527,-117.798,-5.798
-0.556,-0.828,2.261,18.494,4.944,52.734
-0.519,-0.698,2.011,18.738,111.389,102.478
-0.532,-0.579,1.761,24.902,198.120,147.888
-0.544,-0.469,1.529,27.161,264.893,189.880
-0.532,-0.348,1.323,25.208,310.608,225.586
-0.495,-0.239,1.134,29.419,337.646,252.319
-0.407,-0.140,0.996,43.091,350.220,269.775
-0.345,-0.038,0.831,59.570,338.867,281.494
-0.245,0.051,0.696,74.646,312.927,288.757
-0.184,0.138,0.582,84.290,284.912,289.917
-0.124,0.223,0.490,83.862,250.427,282.532
-0.012,0.303,0.417,74.036,212.219,264.893
0.127,0.375,0.359,54.382,168.030,237.183
0.232,0.447,0.335,30.029,124.756,200.806
0.308,0.512,0.335,9.888,80.444,161.194
0.350,0.555,0.359,3.662,34.241,122.131
0.372,0.565,0.406,11.597,-9.949,81.177
0.358,0.534,0.482,23.560,-53.650,37.109
0.320,0.458,0.581,27.344,-93.811,-6.287
0.251,0.368,0.698,15.869,-126.892,-46.143
0.171,0.285,0.821,-3.967,-150.452,-78.735
0.078,0.202,0.929,-16.846,-163.208,-105.774
0.022,0.112,1.011,-20.691,-164.978,-128.174
-0.017,0.023,1.078,-21.667,-158.875,-146.545
-0.041,-0.060,1.134,-25.879,-147.705,-160.461
-0.044,-0.133,1.181,-35.095,-133.301,-169.006
-0.048,-0.191,1.225,-44.312,-120.178,-171.753
-0.035,-0.241,1.268,-45.532,-106.934,-166.809
-0.024,-0.286,1.298,-34.668,-92.712,-155.396
-0.001,-0.330,1.320,-16.724,-76.111,-137.451
0.014,-0.362,1.339,1.343,-60.120,-115.356
0.043,-0.378,1.365,18.799,-45.593,-87.219
0.031,-0.379,1.397,39.307,-33.936,-54.565
-0.005,-0.369,1.432,66.345,-25.757,-21.790
-0.007,-0.351,1.469,98.389,-20.386,9.033
-0.035,-0.329,1.496,128.235,-13.489,41.077
-0.103,-0.310,1.500,150.208,-2.625,70.374
-0.129,-0.246,1.532,157.959,9.277,91.675
-0.123,-0.224,1.553,166.626,13.428,98.389
-0.101,-0.210,1.606,168.396,9.277,96.375
-0.103,-0.196,1.692,163.879,-1.892,92.224
-0.189,-0.199,1.793,166.016,-17.273,85.754
-0.248,-0.221,1.889,172.363,-22.644,81.970
-0.203,-0.254,1.906,166.077,0.488,82.642
-0.214,-0.268,1.916,134.277,67.627,78.918
-0.257,-0.229,1.901,84.717,159.851,69.580
-0.375,-0.172,1.819,47.302,246.460,53.955
-0.410,-0.064,1.705,36.316,317.993,39.368
-0.345,0.002,1.547,61.401,375.061,32.898
-0.426,-0.000,1.324,108.398,424.438,23.132
-0.479,-0.005,1.089,119.141,476.074,18.677
-0.564,0.037,0.870,98.511,531.311,15.259
-0.637,0.039,0.652,79.529,592.590,8.301
-0.694,0.020,0.456,71.289,644.348,-15.625
-0.597,0.006,0.257,60.913,665.955,-51.392
-0.555,-0.015,0.093,48.828,669.250,-85.388
-0.493,-0.045,-0.086,30.457,654.663,-115.417
-0.446,-0.086,-0.237,-2.808,638.428,-147.095
-0.437,-0.132,-0.365,-47.485,621.887,-188.171
-0.400,-0.191,-0.442,-88.013,602.844,-238.647
-0.321,-0.286,-0.524,-120.361,565.430,-284.546
-0.232,-0.410,-0.578,-142.578,517.151,-330.017
-0.131,-0.542,-0.609,-151.733,463.257,-370.667
-0.073,-0.680,-0.631,-146.667,403.198,-403.992
-0.095,-0.825,-0.643,-128.540,342.590,-427.917
-0.149,-1.008,-0.673,-107.300,283.386,-439.941
-0.276,-1.342,-0.541,78.125,258.362,-456.543
-0.227,-1.502,-1.082,471.924,186.707,-416.504
-0.178,-1.603,-1.108,333.130,127.380,-356.506
-0.184,-1.696,-1.178,221.436,96.252,-300.842
-0.077,-1.704,-1.154,128.235,41.565,-240.295
-0.016,-1.722,-1.021,9.338,-8.850,-179.443
0.050,-1.640,-0.756,-95.947,-56.641,-119.995
0.075,-1.522,-0.465,-167.786,-101.685,-60.974
0.159,-1.406,-0.293,-176.453,-140.808,-14.648
0.173,-1.316,-0.115,-107.117,-135.925,17.639
0.179,-1.269,-0.084,17.517,-142.883,41.504
0.134,-1.241,-0.102,117.126,-146.423,61.829
0.129,-1.196,-0.103,135.742,-140.991,82.764
0.177,-1.119,-0.074,94.849,-130.493,103.394
0.234,-1.023,-0.031,43.884,-116.882,121.094
0.285,-0.937,0.003,15.137,-101.685,133.118
0.339,-0.863,0.026,11.230,-86.365,138.489
0.453,-0.815,0.035,20.630,-73.181,135.986
0.554,-0.775,0.043,30.762,-63.538,127.686
0.573,-0.741,0.052,33.569,-54.871,118.042
0.515,-0.708,0.066,25.635,-42.297,108.154
0.500,-0.678,0.072,8.911,-25.208,96.436
0.512,-0.646,0.069,-9.460,-5.371,81.482
0.545,-0.620,0.059,-23.682,14.099,62.012

-0.776,-1.770,0.106,115.356,113.342,134.094
-0.891,-1.649,0.053,80.872,167.786,223.389
-0.868,-1.478,0.016,55.603,219.299,308.228
-0.776,-1.304,-0.047,72.388,256.226,381.287
-0.680,-1.112,-0.142,114.685,280.701,447.388
-0.792,-0.931,-0.229,147.705,302.734,512.878
-0.891,-0.730,-0.313,164.124,323.303,578.918
-0.913,-0.507,-0.386,165.527,336.060,629.517
-0.972,-0.265,-0.464,171.692,344.604,667.786
-1.106,-0.025,-0.553,187.683,352.051,700.317
-1.193,0.208,-0.646,197.388,360.718,728.455
-1.228,0.430,-0.735,192.200,368.225,746.399
-1.219,0.660,-0.837,180.969,373.718,749.817
-1.209,0.882,-0.937,167.603,374.451,742.310
-1.192,1.088,-1.040,148.682,368.896,720.703
-1.050,1.275,-1.145,125.000,358.826,680.969
-0.862,1.433,-1.259,98.999,340.088,623.169
-0.635,1.549,-1.371,75.317,313.721,549.622
-0.445,1.627,-1.469,58.716,280.151,459.045
-0.290,1.672,-1.551,50.903,239.929,355.530
-0.122,1.685,-1.613,45.349,193.909,251.160
-0.002,1.664,-1.641,38.696,143.799,144.775
0.050,1.613,-1.637,38.208,91.370,35.583
0.060,1.502,-1.586,53.894,39.734,-66.711
0.024,1.339,-1.493,81.482,-5.554,-156.921
-0.042,1.162,-1.395,102.234,-41.748,-232.849
-0.102,0.991,-1.298,102.234,-68.726,-295.166
-0.120,0.817,-1.215,87.830,-85.815,-344.360
-0.120,0.652,-1.146,63.110,-95.398,-382.019
-0.103,0.486,-1.081,32.104,-99.426,-406.860
-0.074,0.327,-1.024,1.038,-99.792,-419.006
-0.067,0.169,-0.966,-26.672,-98.083,-420.349
-0.036,0.011,-0.918,-46.326,-96.252,-413.513
0.002,-0.138,-0.872,-58.105,-93.079,-400.330
0.056,-0.280,-0.832,-63.721,-88.074,-380.127
0.152,-0.413,-0.799,-65.491,-81.909,-353.088
0.197,-0.526,-0.766,-65.735,-75.378,-318.420
0.210,-0.627,-0.735,-65.918,-67.017,-276.489
0.249,-0.710,-0.714,-67.444,-55.542,-228.333
0.295,-0.766,-0.697,-70.801,-41.748,-176.453
0.311,-0.790,-0.680,-72.632,-27.222,-121.887
0.312,-0.784,-0.669,-67.261,-11.169,-65.369
0.294,-0.749,-0.669,-51.758,5.066,-9.460
0.260,-0.680,-0.694,-30.334,22.095,42.603
0.220,-0.584,-0.730,-20.081,39.307,89.539
0.205,-0.475,-0.760,-32.654,55.054,130.371
0.201,-0.352,-0.786,-53.528,68.604,163.818
0.176,-0.234,-0.813,-63.965,80.078,189.514
0.122,-0.121,-0.844,-57.068,88.989,206.116
0.088,-0.026,-0.887,-37.476,94.299,213.928
0.058,0.056,-0.937,-16.846,95.886,213.196
0.042,0.117,-0.995,-5.371,93.323,204.651
0.026,0.192,-1.032,-11.292,87.524,192.200
-0.012,0.257,-1.061,-11.475,79.041,174.133
-0.067,0.309,-1.090,9.216,64.697,146.423
-0.128,0.344,-1.122,46.143,46.082,112.671
-0.203,0.360,-1.164,89.355,23.682,73.792
-0.307,0.361,-1.204,123.047,-1.831,33.142
-0.386,0.359,-1.242,142.090,-29.846,-7.141
-0.377,0.356,-1.279,157.959,-62.073,-47.485
-0.266,0.352,-1.313,183.594,-100.098,-86.060
0.020,0.342,-1.350,218.445,-145.203,-123.657
0.161,0.357,-1.338,257.629,-193.909,-162.720
0.106,0.389,-1.269,298.462,-237.122,-195.923
0.032,0.433,-1.189,344.666,-272.339,-224.487
-0.116,0.454,-1.093,403.076,-302.612,-249.023
-0.027,0.445,-1.043,447.937,-328.308,-266.479
-0.048,0.468,-0.949,461.243,-342.834,-290.222
-0.029,0.485,-0.844,461.182,-356.201,-321.350
0.148,0.463,-0.766,469.971,-367.126,-361.389
0.482,0.404,-0.704,488.770,-373.413,-416.077
0.737,0.315,-0.629,505.005,-373.291,-481.384
0.890,0.200,-0.528,500.732,-368.774,-534.851
0.954,0.047,-0.407,462.769,-363.892,-568.481
0.915,-0.123,-0.273,386.108,-365.234,-582.275
0.766,-0.294,-0.122,282.349,-374.390,-577.271
0.509,-0.446,0.036,173.157,-388.062,-553.528
0.118,-0.584,0.176,80.872,-403.015,-521.179
0.340,-0.680,0.329,16.724,-409.302,-495.605
0.178,-0.846,0.409,-11.597,-414.551,-449.402
-0.002,-0.988,0.521,-25.574,-385.376,-416.870
0.271,-1.096,0.554,-43.457,-367.432,-391.052
0.284,-1.183,0.661,-69.885,-340.942,-339.905
0.262,-1.224,0.767,-88.257,-308.289,-283.325
0.359,-1.262,0.849,-86.243,-289.917,-231.201
0.437,-1.298,0.920,-69.092,-274.353,-180.664
0.426,-1.317,0.991,-48.157,-258.301,-134.521
0.402,-1.318,1.057,-30.762,-245.300,-89.539
0.399,-1.293,1.118,-21.545,-234.497,-40.344
0.367,-1.231,1.170,-14.893,-220.032,12.817
0.324,-1.139,1.209,1.221,-196.533,65.857
0.311,-1.048,1.208,32.227,-165.222,114.197
0.309,-0.955,1.164,63.782,-129.517,155.396
0.317,-0.844,1.096,77.759,-89.966,189.880
0.333,-0.718,1.026,70.618,-51.453,218.384
0.367,-0.582,0.967,53.467,-17.883,240.784
0.435,-0.463,0.912,41.321,6.836,253.113
0.498,-0.359,0.860,38.696,23.560,252.625
0.549,-0.271,0.814,41.382,33.691,242.187
0.613,-0.199,0.774,42.542,37.964,224.243

-1.457,-0.568,1.018,312.073,-841.797,286.499
-1.591,-0.610,1.226,283.875,-854.004,250.732
-1.645,-0.644,1.429,236.755,-841.309,225.586
-1.605,-0.658,1.608,181.763,-807.800,210.144
-1.522,-0.651,1.792,134.277,-754.211,202.820
-1.379,-0.631,1.947,102.844,-684.021,202.148
-1.222,-0.611,2.054,88.684,-600.037,201.721
-1.053,-0.595,2.122,82.886,-507.935,198.608
-0.883,-0.572,2.161,76.660,-405.518,190.308
-0.704,-0.547,2.161,67.627,-299.133,178.345
-0.582,-0.517,2.118,57.495,-190.552,162.476
-0.500,-0.480,2.014,46.570,-84.473,143.677
-0.424,-0.439,1.838,36.987,13.733,121.094
-0.399,-0.399,1.641,25.757,101.746,94.177
-0.405,-0.366,1.451,9.644,176.025,65.491
-0.432,-0.341,1.265,-9.094,235.352,35.645
-0.437,-0.320,1.089,-29.907,280.334,5.981
-0.431,-0.305,0.934,-51.331,314.453,-22.766
-0.441,-0.308,0.805,-67.322,335.693,-52.673
-0.365,-0.329,0.666,-79.285,334.229,-84.473
-0.316,-0.366,0.537,-89.661,325.867,-114.258
-0.258,-0.408,0.446,-104.187,306.946,-140.503
-0.239,-0.453,0.382,-120.728,278.809,-162.354
-0.196,-0.499,0.343,-135.315,241.760,-178.162
-0.167,-0.545,0.324,-141.479,200.989,-187.317
-0.182,-0.598,0.330,-135.559,161.072,-189.331
-0.150,-0.658,0.350,-122.192,119.446,-183.655
-0.146,-0.714,0.380,-104.614,80.139,-170.044
-0.180,-0.762,0.423,-86.792,44.983,-151.001
-0.183,-0.798,0.474,-65.918,12.451,-127.930
-0.179,-0.826,0.524,-36.621,-17.212,-100.342
-0.204,-0.853,0.571,-3.540,-43.945,-70.557
-0.227,-0.867,0.620,23.499,-67.505,-40.100
-0.245,-0.855,0.679,40.771,-88.257,-9.644
-0.271,-0.829,0.744,55.420,-105.530,18.738
-0.279,-0.804,0.809,72.083,-119.568,44.067
-0.266,-0.781,0.871,85.388,-129.456,64.209
-0.290,-0.752,0.937,89.111,-134.460,78.796
-0.329,-0.714,1.008,82.947,-134.460,88.379
-0.354,-0.671,1.082,72.327,-129.761,93.933
-0.410,-0.632,1.150,62.744,-119.507,95.337
-0.472,-0.600,1.220,50.476,-103.210,92.712
-0.486,-0.572,1.295,32.043,-84.473,84.961
-0.457,-0.569,1.378,12.085,-64.575,69.214
-0.459,-0.607,1.472,-8.911,-46.143,40.833
-0.509,-0.681,1.565,-39.551,-29.297,1.587
-0.540,-0.761,1.664,-85.693,-6.531,-43.030
-0.566,-0.818,1.762,-140.686,27.222,-87.341
-0.614,-0.836,1.838,-190.430,72.388,-122.314
-0.663,-0.837,1.885,-217.896,130.920,-144.348
-0.608,-0.859,1.902,-219.788,199.524,-156.921
-0.605,-0.891,1.873,-211.609,266.907,-168.518
-0.742,-0.899,1.796,-211.426,331.238,-179.199
-0.951,-0.855,1.678,-226.562,390.991,-183.655
-1.050,-0.776,1.547,-238.892,443.054,-178.894
-1.010,-0.721,1.395,-217.957,490.967,-166.260
-0.882,-0.697,1.214,-170.166,535.645,-144.592
-0.745,-0.672,1.018,-121.338,580.017,-115.173
-0.714,-0.633,0.815,-82.642,622.742,-77.087
-0.653,-0.580,0.605,-56.824,664.551,-31.067
-0.624,-0.508,0.412,-39.246,700.989,17.822
-0.670,-0.442,0.209,-14.709,729.675,68.176
-0.624,-0.396,0.021,16.541,743.286,112.732
-0.467,-0.358,-0.175,39.490,737.244,147.339
-0.286,-0.319,-0.342,41.382,711.731,173.523
-0.121,-0.256,-0.471,23.560,674.377,193.604
-0.013,-0.183,-0.605,3.296,625.000,209.900
0.040,-0.103,-0.695,-2.991,573.486,224.854
0.108,0.012,-0.766,-7.874,515.320,241.882
0.164,0.133,-0.805,14.709,461.304,263.306
0.213,0.244,-0.855,80.505,408.813,280.457
0.304,0.335,-0.915,158.691,346.313,295.410
0.419,0.435,-0.959,216.370,280.701,305.420
0.488,0.542,-0.972,251.770,219.666,310.364
0.534,0.651,-0.957,274.231,159.119,307.373
0.590,0.753,-0.918,288.940,98.572,296.936
0.650,0.841,-0.846,293.274,39.368,279.968
0.684,0.912,-0.751,283.447,-16.235,256.409
0.676,0.963,-0.636,261.658,-66.406,227.173
0.647,0.998,-0.509,231.201,-110.229,194.214
0.633,1.017,-0.385,199.707,-145.386,161.072
0.664,1.019,-0.268,172.363,-169.983,126.770
0.677,1.010,-0.152,145.142,-186.218,93.628
0.670,0.992,-0.043,117.249,-195.862,62.561
0.665,0.966,0.059,91.370,-197.449,33.813
0.662,0.932,0.158,68.115,-193.115,8.728
0.672,0.896,0.250,49.194,-187.256,-13.184
0.709,0.849,0.328,41.809,-179.626,-33.875
0.748,0.789,0.395,43.457,-168.701,-53.223
0.749,0.718,0.453,45.471,-156.189,-71.472
0.746,0.644,0.498,42.480,-142.639,-86.792
0.743,0.573,0.529,30.823,-127.258,-97.961
0.738,0.512,0.555,12.512,-109.497,-104.553
0.725,0.467,0.574,-4.456,-88.623,-106.201
0.706,0.424,0.581,-13.733,-66.406,-103.882
0.700,0.385,0.577,-14.648,-44.128,-98.450
0.718,0.349,0.563,-10.193,-22.644,-90.759
0.725,0.318,0.543,-4.150,-4.517,-81.238
0.716,0.290,0.522,0.183,9.399,-69.763
0.724,0.271,0.500,1.831,20.081,-57.495

-0.649,-1.517,0.695,-244.629,-98.877,-657.043
-0.635,-1.622,0.799,-244.263,-96.558,-601.013
-0.599,-1.746,0.844,-184.998,-78.857,-540.710
-0.513,-1.885,0.842,-116.577,-46.448,-475.525
-0.443,-1.994,0.822,-79.834,-9.460,-402.832
-0.401,-2.032,0.805,-78.918,28.015,-326.660
-0.312,-2.016,0.791,-88.806,62.256,-244.629
-0.232,-1.960,0.755,-80.811,89.661,-161.133
-0.204,-1.868,0.685,-48.828,109.375,-80.994
-0.188,-1.755,0.602,-7.385,119.446,-8.545
-0.178,-1.643,0.524,31.372,119.873,52.979
-0.146,-1.530,0.455,61.523,113.098,106.018
-0.105,-1.418,0.386,84.106,103.210,150.391
-0.099,-1.307,0.326,101.257,94.299,189.514
-0.101,-1.198,0.268,112.610,85.999,222.839
-0.083,-1.091,0.222,115.417,78.308,246.704
-0.028,-0.993,0.187,109.497,70.313,260.986
0.041,-0.896,0.164,99.060,59.998,265.320
0.109,-0.801,0.148,88.806,47.241,260.803
0.187,-0.719,0.135,81.604,32.959,250.366
0.254,-0.648,0.125,76.904,18.005,234.680
0.320,-0.589,0.120,73.486,3.845,214.478
0.369,-0.536,0.118,68.604,-8.118,191.040
0.394,-0.491,0.122,63.293,-17.151,166.809
0.425,-0.459,0.128,62.134,-24.048,139.587
0.450,-0.445,0.133,64.636,-30.823,107.910
0.467,-0.447,0.135,64.880,-36.438,74.219
0.480,-0.464,0.147,56.152,-40.405,42.664
0.483,-0.493,0.170,37.964,-42.480,14.038
0.484,-0.530,0.200,14.587,-43.152,-12.756
0.461,-0.577,0.231,-4.333,-42.786,-38.025
0.434,-0.635,0.257,-13.428,-41.565,-60.547
0.409,-0.702,0.274,-16.235,-38.147,-80.444
0.380,-0.772,0.285,-18.677,-33.203,-97.656
0.350,-0.844,0.293,-24.170,-26.489,-110.657
0.338,-0.914,0.297,-32.715,-18.250,-119.202
0.314,-0.981,0.298,-41.748,-9.094,-123.291
0.297,-1.049,0.293,-49.500,0.000,-122.620
0.298,-1.123,0.284,-57.129,10.071,-118.225
0.267,-1.202,0.260,-66.284,22.278,-111.145
0.166,-1.282,0.228,-78.430,37.964,-101.318
0.054,-1.356,0.170,-98.877,56.519,-86.914
-0.100,-1.423,0.101,-125.854,83.313,-65.735
-0.243,-1.494,0.027,-160.217,114.807,-34.973
-0.343,-1.578,-0.047,-197.815,147.705,3.601
-0.390,-1.634,-0.104,-232.727,178.345,44.006
-0.371,-1.666,-0.153,-252.502,200.195,97.168
-0.345,-1.650,-0.199,-242.798,206.482,159.546
-0.279,-1.575,-0.259,-192.383,192.383,227.661
-0.210,-1.455,-0.341,-101.257,156.921,302.368
-0.169,-1.302,-0.432,13.184,101.257,380.981
-0.127,-1.125,-0.504,126.953,24.597,457.520
-0.107,-0.933,-0.528,223.938,-75.562,523.254
0.018,-0.739,-0.491,306.702,-199.585,564.270
0.027,-0.536,-0.389,381.775,-341.309,569.519
-0.164,-0.367,-0.219,455.566,-486.511,551.941
-0.455,-0.265,-0.007,515.686,-628.662,514.893
-0.775,-0.237,0.222,543.945,-755.798,454.712
-1.079,-0.266,0.467,529.541,-856.018,375.061
-1.301,-0.345,0.706,481.384,-919.861,288.208
-1.388,-0.423,0.973,400.269,-945.496,201.233
-1.415,-0.501,1.230,302.490,-938.232,133.423
-1.307,-0.569,1.448,208.435,-905.579,82.764
-1.190,-0.626,1.676,129.272,-843.567,46.692
-1.047,-0.671,1.884,71.777,-767.944,23.376
-0.937,-0.715,2.037,36.133,-683.228,7.935
-0.809,-0.755,2.152,17.151,-591.370,-0.977
-0.698,-0.795,2.235,6.287,-489.807,-5.371
-0.591,-0.821,2.269,-2.869,-382.690,-6.653
-0.497,-0.826,2.266,-13.123,-272.034,-3.174
-0.461,-0.815,2.208,-19.592,-160.217,1.526
-0.450,-0.774,2.075,-22.034,-52.612,7.019
-0.392,-0.717,1.881,-19.714,44.495,10.498
-0.364,-0.665,1.670,-13.000,130.859,9.766
-0.364,-0.618,1.470,-11.414,203.064,6.470
-0.352,-0.571,1.281,-16.846,259.644,1.648
-0.335,-0.527,1.104,-23.743,301.636,-4.211
-0.291,-0.501,0.943,-25.391,331.360,-11.658
-0.290,-0.500,0.808,-22.095,347.168,-21.790
-0.173,-0.505,0.661,-18.616,340.149,-34.912
-0.118,-0.524,0.537,-16.541,328.186,-47.668
-0.046,-0.541,0.441,-22.095,305.542,-59.143
-0.015,-0.557,0.359,-30.457,276.855,-68.054
0.019,-0.571,0.296,-36.560,242.737,-72.998
0.070,-0.583,0.250,-37.781,203.064,-72.632
0.123,-0.599,0.221,-30.701,160.706,-68.787
0.151,-0.621,0.207,-18.921,116.882,-64.026
0.182,-0.644,0.216,-9.399,72.083,-58.594
0.192,-0.664,0.257,-3.174,27.283,-52.246
0.171,-0.679,0.336,3.662,-14.404,-45.837
0.156,-0.703,0.415,18.677,-51.331,-39.795
0.144,-0.738,0.487,35.156,-82.031,-34.729
0.128,-0.768,0.559,41.016,-105.286,-28.992
0.096,-0.781,0.641,37.109,-121.582,-22.583
0.075,-0.784,0.723,32.349,-131.287,-14.832
0.032,-0.785,0.784,34.058,-134.583,-7.568
0.011,-0.780,0.854,35.339,-131.897,0.793
0.028,-0.775,0.908,37.292,-128.601,8.606
0.017,-0.774,0.954,44.312,-118.713,13.489
0.020,-0.771,0.985,47.974,-105.652,17.151

-0.143,-1.100,1.413,-305.542,21.484,-113.586
-0.076,-1.079,1.481,-311.035,47.546,-95.886
-0.055,-1.031,1.508,-303.162,94.116,-69.214
-0.112,-0.967,1.483,-279.846,153.687,-34.241
-0.197,-0.887,1.395,-252.563,211.426,2.197
-0.193,-0.799,1.273,-235.107,251.587,33.630
-0.202,-0.693,1.160,-232.056,280.823,62.317
-0.257,-0.567,1.050,-234.863,309.021,92.896
-0.251,-0.453,0.941,-233.276,337.158,124.451
-0.198,-0.344,0.813,-224.854,363.708,151.611
-0.179,-0.231,0.677,-210.999,389.893,174.683
-0.172,-0.130,0.528,-188.354,417.419,196.777
-0.145,-0.050,0.375,-159.424,441.528,212.952
-0.178,0.017,0.214,-137.695,459.473,221.375
-0.215,0.088,0.060,-138.428,471.741,228.821
-0.186,0.170,-0.078,-163.452,473.755,237.000
-0.091,0.256,-0.193,-195.129,465.332,241.028
0.038,0.309,-0.320,-213.135,450.134,238.220
0.122,0.367,-0.393,-224.243,428.162,227.539
0.268,0.449,-0.493,-225.525,382.874,213.989
0.395,0.499,-0.567,-189.209,341.858,204.224
0.510,0.541,-0.640,-136.108,289.185,199.341
0.598,0.597,-0.684,-94.971,225.464,198.853
0.621,0.666,-0.688,-62.195,160.339,198.730
0.618,0.740,-0.662,-25.391,97.168,196.838
0.638,0.810,-0.612,18.188,35.400,191.406
0.659,0.874,-0.535,66.589,-23.010,181.702
0.683,0.899,-0.437,112.305,-75.745,166.260
0.735,0.930,-0.305,138.794,-121.643,141.418
0.725,0.939,-0.154,155.518,-163.635,116.516
0.695,0.907,-0.008,171.692,-203.247,89.050
0.620,0.855,0.133,169.006,-237.488,60.242
0.558,0.807,0.268,136.963,-263.367,35.522
0.508,0.771,0.403,92.407,-276.489,14.832
0.482,0.738,0.521,55.847,-278.015,-3.113
0.462,0.705,0.627,32.776,-270.630,-18.005
0.452,0.669,0.712,20.386,-255.005,-30.701
0.443,0.632,0.784,15.808,-230.530,-41.321
0.432,0.592,0.844,13.916,-201.416,-48.828
0.398,0.560,0.897,9.583,-173.767,-51.880
0.406,0.526,0.935,4.639,-149.475,-51.147
0.415,0.501,0.963,0.244,-127.441,-48.523
0.405,0.479,0.981,-4.150,-106.262,-44.739
0.419,0.459,0.990,-9.583,-85.388,-40.405
0.385,0.454,0.990,-19.226,-66.589,-34.241
0.359,0.459,0.983,-28.442,-46.387,-25.574
0.375,0.479,0.962,-30.945,-24.414,-15.625
0.404,0.500,0.922,-18.921,-2.136,-6.714
0.445,0.510,0.865,5.005,17.151,-0.793
0.464,0.514,0.806,27.832,31.738,3.784
0.455,0.526,0.755,38.696,42.236,8.362
0.430,0.552,0.713,40.833,50.415,13.062
0.406,0.581,0.673,45.227,57.556,16.785
0.386,0.607,0.635,55.847,64.209,18.921
0.366,0.629,0.596,67.017,68.726,19.775
0.249,0.659,0.558,72.815,70.679,19.653
0.181,0.714,0.535,70.068,71.350,21.606
0.156,0.792,0.518,66.467,70.129,24.536
0.146,0.869,0.510,72.144,68.481,23.560
0.151,0.949,0.508,86.609,65.186,15.320
0.132,1.022,0.509,109.436,62.073,0.366
0.110,1.092,0.507,138.733,65.369,-21.667
-0.042,1.150,0.509,165.649,79.346,-50.720
0.012,1.194,0.492,183.899,98.816,-85.388
0.022,1.204,0.447,186.157,117.432,-129.028
-0.051,1.196,0.414,170.715,135.193,-184.692
0.176,1.153,0.345,137.512,144.104,-245.605
0.398,1.070,0.286,77.759,135.193,-317.627
0.466,0.971,0.266,-22.827,95.825,-391.968
0.340,0.895,0.290,-164.185,23.865,-461.243
0.040,0.870,0.366,-313.354,-58.838,-529.053
-0.208,0.847,0.491,-430.908,-145.081,-587.463
-0.393,0.793,0.633,-489.258,-230.530,-636.047
-0.618,0.691,0.780,-481.384,-304.077,-680.420
-0.803,0.529,0.921,-419.006,-355.896,-717.529
-0.911,0.316,1.030,-326.904,-388.977,-752.991
-0.992,0.094,1.161,-261.841,-409.973,-771.240
-1.142,-0.114,1.310,-223.083,-426.086,-775.879
-1.252,-0.316,1.474,-188.232,-440.979,-770.630
-1.319,-0.505,1.626,-147.156,-448.181,-754.883
-1.387,-0.709,1.775,-99.121,-445.984,-728.699
-1.341,-0.921,1.905,-53.894,-426.331,-688.110
-1.176,-1.115,2.006,-23.071,-384.033,-633.362
-0.989,-1.287,2.088,-11.719,-314.636,-566.467
-0.763,-1.400,2.136,-14.709,-226.501,-494.812
-0.602,-1.460,2.138,-20.935,-126.038,-415.039
-0.510,-1.474,2.081,-19.348,-26.123,-329.529
-0.421,-1.442,1.964,-11.169,62.744,-241.577
-0.342,-1.355,1.786,3.845,139.465,-154.846
-0.262,-1.242,1.586,31.128,203.125,-74.951
-0.225,-1.132,1.379,69.763,252.441,-0.916
-0.194,-1.023,1.171,106.445,286.011,68.420
-0.162,-0.910,0.981,131.592,302.551,134.644
-0.161,-0.790,0.833,149.536,304.687,195.618
-0.110,-0.668,0.699,165.466,286.926,246.277
-0.040,-0.553,0.577,179.810,254.089,286.133
0.018,-0.441,0.488,188.477,216.858,316.589
0.063,-0.328,0.423,189.636,177.490,336.670
0.148,-0.216,0.385,183.350,135.803,344.299
0.236,-0.099,0.366,172.058,91.797,339.661

-0.355,-0.999,1.729,40.527,-146.606,8.484
-0.455,-1.029,1.910,-22.217,-149.841,10.681
-0.460,-1.025,2.067,-73.669,-128.845,28.748
-0.395,-1.022,2.169,-93.201,-70.557,61.462
-0.287,-1.017,2.213,-89.661,22.156,100.891
-0.105,-0.974,2.148,-81.299,139.221,145.996
-0.265,-0.878,1.910,-61.890,283.691,194.153
-0.437,-0.788,1.558,-37.048,428.589,229.431
-0.641,-0.697,1.225,-44.800,554.687,255.920
-0.852,-0.551,0.920,-78.857,663.208,281.006
-1.007,-0.393,0.677,-97.046,750.305,308.472
-1.198,-0.234,0.430,-67.993,803.894,338.135
-1.139,-0.104,0.172,-0.122,812.561,368.103
-1.122,0.002,-0.060,80.933,809.875,403.503
-1.022,0.119,-0.265,144.165,782.410,438.477
-0.944,0.262,-0.443,185.242,740.356,471.130
-0.946,0.391,-0.548,214.722,696.716,506.104
-0.864,0.532,-0.672,230.530,638.123,535.217
-0.784,0.678,-0.751,234.863,585.266,551.758
-0.701,0.839,-0.812,239.990,534.973,557.373
-0.585,1.000,-0.869,254.944,478.943,553.040
-0.558,1.160,-0.885,283.630,420.593,543.213
-0.483,1.307,-0.874,317.017,358.765,530.823
-0.350,1.443,-0.837,341.858,291.321,513.550
-0.234,1.566,-0.769,353.699,221.802,489.929
-0.135,1.663,-0.679,350.647,154.846,459.045
-0.051,1.735,-0.578,325.562,95.093,416.870
0.021,1.785,-0.483,271.973,46.204,364.746
0.092,1.832,-0.399,197.327,10.498,305.054
0.141,1.875,-0.328,117.798,-14.832,242.065
0.165,1.905,-0.264,53.284,-32.532,176.575
0.184,1.905,-0.211,16.052,-45.654,109.192
0.163,1.857,-0.155,2.502,-53.589,39.551
0.158,1.754,-0.110,1.099,-57.068,-28.931
0.152,1.627,-0.078,3.601,-57.129,-92.224
0.133,1.491,-0.046,10.803,-54.810,-146.057
0.156,1.358,-0.020,22.156,-50.842,-191.040
0.217,1.225,0.001,34.485,-47.546,-226.196
0.260,1.089,0.017,42.847,-46.448,-250.488
0.271,0.959,0.027,41.016,-46.326,-264.160
0.242,0.838,0.039,26.978,-45.471,-268.799
0.276,0.736,0.044,5.615,-43.701,-265.320
0.329,0.650,0.046,-13.000,-39.612,-256.287
0.378,0.576,0.049,-21.118,-33.203,-243.652
0.413,0.507,0.051,-16.113,-26.245,-227.112
0.448,0.450,0.056,-1.648,-19.836,-206.543
0.477,0.399,0.059,16.235,-14.526,-182.434
0.483,0.356,0.066,33.508,-10.986,-154.846
0.504,0.330,0.075,45.837,-8.850,-124.084
0.532,0.320,0.084,53.528,-6.287,-92.041
0.551,0.333,0.100,58.289,-3.418,-59.875
0.515,0.373,0.125,62.927,-1.038,-28.931
0.463,0.440,0.158,71.838,1.892,-0.854
0.402,0.517,0.186,88.196,5.432,23.315
0.354,0.600,0.209,108.582,10.498,43.030
0.312,0.690,0.238,126.526,16.724,58.289
0.234,0.786,0.273,143.066,25.269,67.688
0.140,0.890,0.304,159.424,37.537,70.984
0.077,1.004,0.330,175.476,57.678,66.345
0.015,1.135,0.368,193.481,85.815,52.490
-0.011,1.250,0.407,225.647,119.690,28.992
0.080,1.312,0.448,267.822,159.302,-5.859
0.141,1.327,0.498,303.467,200.928,-50.842
0.123,1.290,0.524,326.050,249.451,-96.924
0.184,1.212,0.519,335.266,310.791,-143.433
0.150,1.116,0.486,323.425,368.896,-186.523
0.201,1.026,0.419,287.659,417.419,-222.107
0.348,0.936,0.326,244.019,449.829,-256.165
0.379,0.828,0.220,212.585,471.252,-289.795
0.318,0.709,0.080,189.697,486.572,-317.200
0.197,0.595,-0.067,165.710,499.512,-335.388
0.188,0.491,-0.223,134.766,508.179,-344.543
0.167,0.398,-0.392,94.421,513.428,-347.839
0.132,0.312,-0.563,53.406,523.865,-351.135
0.157,0.240,-0.741,23.376,535.095,-356.567
0.189,0.142,-0.945,4.578,541.321,-360.291
0.200,0.021,-1.119,-26.733,541.077,-365.601
0.202,-0.110,-1.286,-90.759,521.729,-372.253
0.196,-0.257,-1.412,-183.105,487.427,-381.836
0.226,-0.415,-1.498,-289.612,439.026,-393.799
0.219,-0.578,-1.511,-388.489,377.258,-405.029
0.168,-0.747,-1.459,-456.970,303.162,-411.255
0.111,-0.911,-1.362,-486.328,219.910,-405.945
0.075,-1.050,-1.234,-478.333,140.198,-384.888
0.061,-1.166,-1.107,-442.322,72.510,-353.149
0.053,-1.255,-0.988,-391.418,18.188,-314.758
0.065,-1.304,-0.872,-338.379,-23.193,-270.386
0.098,-1.330,-0.769,-282.654,-56.702,-221.008
0.191,-1.348,-0.684,-222.046,-81.787,-174.500
0.293,-1.363,-0.613,-160.339,-100.098,-142.700
0.336,-1.373,-0.547,-108.521,-116.394,-122.253
0.350,-1.371,-0.486,-71.594,-131.348,-104.309
0.343,-1.355,-0.419,-48.035,-147.217,-81.543
0.314,-1.322,-0.351,-36.011,-163.025,-51.208
0.296,-1.274,-0.287,-31.372,-173.401,-17.517
0.294,-1.217,-0.230,-28.076,-173.462,12.817
0.293,-1.156,-0.182,-24.353,-164.734,36.682
0.311,-1.089,-0.141,-19.714,-151.184,55.542
0.346,-1.017,-0.112,-10.986,-134.644,70.679
0.407,-0.964,-0.102,7.202,-115.601,78.918

-2.502,-0.705,0.447,112.610,-1111.572,-38.696
-2.728,-0.732,0.730,16.357,-1154.358,-67.200
-2.727,-0.771,1.026,-75.317,-1151.245,-70.374
-2.561,-0.756,1.343,-151.184,-1119.263,-57.617
-2.399,-0.733,1.622,-185.120,-1070.923,-33.386
-2.191,-0.733,1.880,-166.260,-995.728,-11.719
-1.994,-0.740,2.076,-125.183,-899.048,3.479
-1.799,-0.746,2.219,-90.576,-792.725,16.235
-1.573,-0.730,2.338,-71.899,-674.011,28.564
-1.375,-0.675,2.414,-62.134,-538.452,41.077
-1.187,-0.611,2.444,-46.875,-394.531,51.514
-0.991,-0.560,2.403,-19.531,-247.070,53.650
-0.852,-0.517,2.274,7.507,-103.577,44.800
-0.745,-0.491,2.041,21.118,30.273,25.696
-0.687,-0.472,1.797,9.888,149.414,-1.343
-0.703,-0.443,1.573,-24.414,251.221,-32.654
-0.793,-0.416,1.381,-60.791,334.534,-66.467
-0.878,-0.405,1.201,-84.595,399.902,-99.182
-0.932,-0.407,1.024,-94.910,448.303,-129.333
-0.988,-0.426,0.890,-98.694,481.384,-157.166
-0.955,-0.445,0.734,-108.032,484.253,-183.899
-0.912,-0.471,0.598,-118.286,477.234,-206.726
-0.831,-0.502,0.491,-123.596,458.618,-223.145
-0.749,-0.544,0.393,-120.544,427.979,-232.361
-0.620,-0.594,0.309,-111.633,386.963,-233.398
-0.497,-0.652,0.243,-99.487,340.332,-227.844
-0.400,-0.708,0.197,-86.975,287.964,-217.468
-0.316,-0.763,0.170,-75.134,231.750,-201.782
-0.261,-0.813,0.166,-64.148,172.974,-179.932
-0.242,-0.859,0.191,-54.138,113.403,-153.137
-0.225,-0.891,0.254,-44.189,53.894,-122.620
-0.254,-0.902,0.354,-28.320,-4.578,-86.426
-0.280,-0.911,0.469,-0.549,-62.805,-48.096
-0.349,-0.916,0.597,28.748,-121.887,-10.681
-0.479,-0.912,0.745,45.410,-180.786,25.146
-0.576,-0.912,0.906,43.579,-234.985,57.068
-0.670,-0.905,1.056,22.827,-276.794,82.336
-0.668,-0.904,1.216,-12.390,-296.265,100.159
-0.708,-0.894,1.363,-60.547,-294.067,108.826
-0.720,-0.873,1.526,-116.577,-275.940,110.291
-0.748,-0.842,1.658,-169.617,-249.512,104.370
-0.792,-0.796,1.788,-213.562,-211.060,93.628
-0.788,-0.721,1.894,-246.155,-158.569,85.754
-0.742,-0.621,1.962,-259.216,-93.384,86.731
-0.714,-0.520,1.978,-242.981,-8.606,94.238
